% Gyrometer data recorded with 'snsrlog'
% 
% 
% Label description:
% 	 0: Default Label
% 	 1: walking
% 
% Column description:
% 	 1: Seconds.milliseconds since 1970
% 	 2: Number of skipped measurements
% 	 3: Gyro X
% 	 4: Gyro Y
% 	 5: Gyro Z
% 	 6: Roll of the device
% 	 7: Pitch of the device
% 	 8: Yaw of the device
% 	 9: Quaternion X
% 	 10: Quaternion Y
% 	 11: Quaternion Z
% 	 12: Quaternion W
% 	 13: Label used for the current sample
% 
% 
1502159866.811	 0	 0.328370	 -0.184739	 -0.377306	 0.065037	 0.169381	 -1.181449	 0.088261	 -0.020182	 -0.552389	 0.828655	 0
1502159866.821	 0	 0.130846	 -0.142558	 -0.356203	 0.064127	 0.170965	 -1.185980	 0.088616	 -0.021201	 -0.554247	 0.827350	 0
1502159866.831	 0	 -0.086216	 -0.069648	 -0.292558	 0.063763	 0.170448	 -1.189091	 0.088269	 -0.021345	 -0.555568	 0.826497	 0
1502159866.841	 0	 -0.273698	 0.041826	 -0.221400	 0.064246	 0.167982	 -1.190695	 0.087371	 -0.020524	 -0.556300	 0.826120	 0
1502159866.851	 0	 -0.381529	 0.205006	 -0.153174	 0.066117	 0.164267	 -1.192179	 0.086348	 -0.018774	 -0.556969	 0.825819	 0
1502159866.861	 0	 -0.399649	 0.333724	 -0.079994	 0.069297	 0.160211	 -1.192839	 0.085560	 -0.016350	 -0.557253	 0.825761	 0
1502159866.871	 0	 -0.353316	 0.386237	 -0.015749	 0.073084	 0.156512	 -1.192886	 0.085094	 -0.013749	 -0.557247	 0.825860	 0
1502159866.881	 0	 -0.261515	 0.343252	 0.014922	 0.076635	 0.153677	 -1.192889	 0.084917	 -0.011486	 -0.557203	 0.825943	 0
1502159866.891	 0	 -0.163806	 0.225783	 0.009556	 0.079184	 0.151815	 -1.192615	 0.084862	 -0.009898	 -0.557052	 0.826071	 0
1502159866.901	 0	 -0.091296	 0.065512	 -0.023597	 0.080257	 0.150730	 -1.192756	 0.084714	 -0.009156	 -0.557105	 0.826059	 0
1502159866.911	 0	 -0.031854	 0.112857	 -0.296158	 0.081315	 0.150142	 -1.194677	 0.084758	 -0.008636	 -0.557876	 0.825540	 0
1502159866.921	 0	 -0.161993	 -0.045745	 -0.298452	 0.082009	 0.148717	 -1.197768	 0.084354	 -0.008079	 -0.559175	 0.824707	 0
1502159866.931	 0	 -0.464256	 -0.457016	 -0.061208	 0.078616	 0.144804	 -1.198586	 0.081795	 -0.008407	 -0.559799	 0.824539	 0
1502159866.941	 0	 -0.725057	 -0.699675	 -0.046844	 0.049451	 0.147067	 -1.195127	 0.074590	 -0.020939	 -0.559436	 0.825245	 0
1502159866.951	 0	 -0.916639	 -0.703241	 -0.107876	 0.049589	 0.153711	 -1.196721	 0.077345	 -0.022812	 -0.559880	 0.824640	 0
1502159866.961	 0	 -1.025207	 -0.543231	 -0.119861	 0.055819	 0.154537	 -1.197847	 0.079416	 -0.020520	 -0.560073	 0.824372	 0
1502159866.971	 0	 -1.051694	 -0.385795	 -0.131341	 0.064242	 0.149052	 -1.200384	 0.079501	 -0.015603	 -0.560969	 0.823863	 0
1502159866.981	 0	 -0.993241	 -0.336357	 -0.163271	 0.071127	 0.138594	 -1.205650	 0.077111	 -0.010015	 -0.563226	 0.822636	 0
1502159866.991	 0	 -0.825137	 -0.258397	 -0.206420	 0.073772	 0.127350	 -1.207686	 0.073241	 -0.005812	 -0.564342	 0.822265	 0
1502159867.001	 0	 -0.534095	 -0.078348	 -0.225701	 0.093220	 0.117486	 -1.216417	 0.074706	 0.004662	 -0.567548	 0.819931	 0
1502159867.011	 0	 -0.212903	 0.006068	 -0.179181	 0.098839	 0.109581	 -1.218715	 0.073083	 0.009142	 -0.568566	 0.819334	 0
1502159867.021	 0	 0.103177	 0.030786	 -0.095019	 0.079875	 0.108445	 -1.220172	 0.067226	 0.001650	 -0.569866	 0.818981	 0
1502159867.031	 0	 0.371411	 0.034888	 -0.005712	 0.071984	 0.112971	 -1.219774	 0.066826	 -0.002866	 -0.569826	 0.819039	 0
1502159867.041	 0	 0.552409	 0.023450	 0.061736	 0.070519	 0.119757	 -1.220716	 0.069176	 -0.005443	 -0.570049	 0.818675	 0
1502159867.051	 0	 0.617225	 0.026052	 0.109178	 0.066647	 0.125417	 -1.219653	 0.070387	 -0.008613	 -0.569570	 0.818878	 0
1502159867.061	 0	 0.557489	 0.012816	 0.140957	 0.063214	 0.129232	 -1.218931	 0.070971	 -0.011086	 -0.569276	 0.819002	 0
1502159867.071	 0	 0.289554	 -0.218137	 0.051481	 0.059704	 0.130662	 -1.218088	 0.070561	 -0.012903	 -0.569011	 0.819196	 0
1502159867.081	 0	 0.038818	 -0.275373	 -0.065315	 0.056032	 0.129999	 -1.218990	 0.069239	 -0.014249	 -0.569529	 0.818926	 0
1502159867.091	 0	 -0.139822	 -0.252178	 -0.208735	 0.052877	 0.128017	 -1.220615	 0.067519	 -0.015028	 -0.570360	 0.818477	 0
1502159867.101	 0	 -0.271640	 -0.291501	 -0.237182	 0.047434	 0.124906	 -1.222793	 0.064678	 -0.016434	 -0.571519	 0.817871	 0
1502159867.111	 0	 -0.271230	 -0.194581	 -0.219381	 0.041618	 0.122243	 -1.224460	 0.061913	 -0.018100	 -0.572456	 0.817394	 0
1502159867.121	 0	 -0.198421	 -0.105647	 -0.169026	 0.036902	 0.120175	 -1.225334	 0.059711	 -0.019460	 -0.573010	 0.817139	 0
1502159867.131	 0	 -0.076662	 0.000679	 -0.121651	 0.033854	 0.118808	 -1.226280	 0.058271	 -0.020340	 -0.573519	 0.816864	 0
1502159867.141	 0	 0.085421	 0.144603	 -0.089158	 0.033122	 0.118755	 -1.226514	 0.058037	 -0.020630	 -0.573637	 0.816790	 0
1502159867.151	 0	 0.248682	 0.272568	 -0.061944	 0.034542	 0.120139	 -1.227149	 0.059002	 -0.020467	 -0.573822	 0.816596	 0
1502159867.161	 0	 0.384626	 0.337484	 -0.037852	 0.038235	 0.121424	 -1.227362	 0.060583	 -0.019335	 -0.573767	 0.816546	 0
1502159867.171	 0	 0.461036	 0.368938	 -0.002221	 0.042784	 0.123024	 -1.227779	 0.062536	 -0.017952	 -0.573755	 0.816439	 0
1502159867.181	 0	 0.453563	 0.345442	 0.036331	 0.047527	 0.124895	 -1.227562	 0.064660	 -0.016548	 -0.573465	 0.816507	 0
1502159867.191	 0	 0.363593	 0.241454	 0.036201	 0.049638	 0.126565	 -1.227285	 0.065948	 -0.016157	 -0.573237	 0.816572	 0
1502159867.201	 0	 0.234587	 0.120154	 -0.038964	 0.050151	 0.128242	 -1.227102	 0.066780	 -0.016425	 -0.573097	 0.816597	 0
1502159867.211	 0	 0.100591	 -0.020337	 -0.171840	 0.049335	 0.129206	 -1.228400	 0.066928	 -0.017079	 -0.573626	 0.816200	 0
1502159867.221	 0	 -0.010047	 -0.144683	 -0.304638	 0.047621	 0.129155	 -1.230522	 0.066397	 -0.017834	 -0.574551	 0.815576	 0
1502159867.231	 0	 -0.077358	 -0.220785	 -0.415974	 0.045520	 0.128227	 -1.234356	 0.065380	 -0.018549	 -0.576208	 0.814472	 0
1502159867.241	 0	 -0.102535	 -0.234802	 -0.496286	 0.043251	 0.126789	 -1.238402	 0.064103	 -0.019186	 -0.577968	 0.813312	 0
1502159867.251	 0	 -0.066228	 -0.218555	 -0.535704	 0.041161	 0.125494	 -1.243623	 0.062922	 -0.019825	 -0.580190	 0.811805	 0
1502159867.261	 0	 0.015704	 -0.197705	 -0.532084	 0.039100	 0.124888	 -1.248225	 0.062031	 -0.020627	 -0.582137	 0.810459	 0
1502159867.271	 0	 0.127337	 -0.188341	 -0.479044	 0.037230	 0.125173	 -1.253175	 0.061549	 -0.021621	 -0.584191	 0.808990	 0
1502159867.281	 0	 0.243053	 -0.157667	 -0.408947	 0.036366	 0.126110	 -1.257006	 0.061632	 -0.022363	 -0.585742	 0.807841	 0
1502159867.291	 0	 0.346947	 -0.113252	 -0.332557	 0.036953	 0.127189	 -1.260849	 0.062196	 -0.022563	 -0.587247	 0.806699	 0
1502159867.301	 0	 0.413379	 -0.054196	 -0.241479	 0.038640	 0.127873	 -1.263549	 0.062937	 -0.022169	 -0.588265	 0.805910	 0
1502159867.311	 0	 0.433749	 0.022607	 -0.118661	 0.040553	 0.128635	 -1.265466	 0.063785	 -0.021684	 -0.588956	 0.805352	 0
1502159867.321	 0	 0.396739	 0.063838	 0.012507	 0.042118	 0.129586	 -1.265606	 0.064627	 -0.021339	 -0.588936	 0.805309	 0
1502159867.331	 0	 0.306052	 0.016287	 0.104128	 0.042595	 0.130802	 -1.264904	 0.065263	 -0.021484	 -0.588604	 0.805496	 0
1502159867.341	 0	 0.180848	 -0.094356	 0.128412	 0.041563	 0.131945	 -1.263325	 0.065436	 -0.022185	 -0.587970	 0.805926	 0
1502159867.351	 0	 0.073567	 -0.142010	 0.105492	 0.039921	 0.132762	 -1.262220	 0.065295	 -0.023052	 -0.587556	 0.806216	 0
1502159867.361	 0	 0.018709	 -0.035909	 0.070515	 0.039242	 0.133403	 -1.261047	 0.065367	 -0.023476	 -0.587087	 0.806539	 0
1502159867.371	 0	 0.044444	 0.125109	 0.056128	 0.040583	 0.134350	 -1.260556	 0.066147	 -0.023198	 -0.586819	 0.806678	 0
1502159867.381	 0	 0.134312	 0.240806	 0.064767	 0.043243	 0.136200	 -1.259589	 0.067683	 -0.022638	 -0.586287	 0.806953	 0
1502159867.391	 0	 0.263997	 0.297168	 0.066394	 0.046131	 0.139193	 -1.259018	 0.069741	 -0.022333	 -0.585870	 0.807089	 0
1502159867.401	 0	 0.375844	 0.320376	 0.048793	 0.049042	 0.143376	 -1.258319	 0.072286	 -0.022364	 -0.585357	 0.807237	 0
1502159867.411	 0	 0.419664	 0.318558	 0.025538	 0.052001	 0.148123	 -1.258174	 0.075064	 -0.022561	 -0.585040	 0.807208	 0
1502159867.421	 0	 0.393181	 0.307715	 0.000822	 0.055035	 0.152465	 -1.257959	 0.077701	 -0.022605	 -0.584695	 0.807207	 0
1502159867.431	 0	 0.307969	 0.311362	 -0.023240	 0.058318	 0.155692	 -1.258347	 0.079954	 -0.022244	 -0.584612	 0.807057	 0
1502159867.441	 0	 0.179159	 0.294424	 -0.037853	 0.061610	 0.157470	 -1.258822	 0.081626	 -0.021458	 -0.584608	 0.806914	 0
1502159867.451	 0	 0.026295	 0.204874	 -0.056600	 0.064042	 0.157685	 -1.259390	 0.082418	 -0.020564	 -0.584730	 0.806768	 0
1502159867.461	 0	 -0.121071	 0.088749	 -0.079488	 0.065111	 0.156562	 -1.259879	 0.082274	 -0.019822	 -0.584924	 0.806661	 0
1502159867.471	 0	 -0.247103	 -0.035728	 -0.095799	 0.064669	 0.154363	 -1.260598	 0.081254	 -0.019381	 -0.585311	 0.806494	 0
1502159867.481	 0	 -0.359191	 -0.189937	 -0.087307	 0.062881	 0.150998	 -1.261224	 0.079373	 -0.019136	 -0.585754	 0.806366	 0
1502159867.491	 0	 -0.443824	 -0.321578	 -0.048792	 0.059991	 0.146378	 -1.261570	 0.076666	 -0.018953	 -0.586164	 0.806334	 0
1502159867.501	 0	 -0.512869	 -0.401988	 0.013145	 0.056038	 0.140781	 -1.261130	 0.073262	 -0.018880	 -0.586319	 0.806540	 0
1502159867.511	 0	 -0.565345	 -0.401332	 0.074860	 0.051556	 0.134819	 -1.260183	 0.069558	 -0.018897	 -0.586283	 0.806893	 0
1502159867.521	 0	 -0.594939	 -0.286536	 0.106313	 0.047660	 0.128837	 -1.258480	 0.066024	 -0.018651	 -0.585903	 0.807472	 0
1502159867.531	 0	 -0.543161	 -0.026292	 0.097040	 0.046053	 0.123419	 -1.257131	 0.063382	 -0.017663	 -0.585562	 0.807953	 0
1502159867.541	 0	 -0.409889	 0.170685	 0.057489	 0.047055	 0.119033	 -1.255777	 0.061918	 -0.015927	 -0.585102	 0.808435	 0
1502159867.551	 0	 -0.237277	 0.214620	 0.000595	 0.049254	 0.116098	 -1.255502	 0.061379	 -0.014168	 -0.585003	 0.808581	 0
1502159867.561	 0	 -0.075964	 0.189215	 -0.052880	 0.051548	 0.114903	 -1.255556	 0.061568	 -0.012891	 -0.584986	 0.808600	 0
1502159867.571	 0	 0.036508	 0.126141	 -0.092590	 0.053367	 0.115110	 -1.256437	 0.062178	 -0.012244	 -0.585281	 0.808351	 0
1502159867.581	 0	 0.073278	 0.051868	 -0.113465	 0.054406	 0.116051	 -1.257304	 0.062856	 -0.012128	 -0.585572	 0.808088	 0
1502159867.591	 0	 0.015906	 0.017369	 -0.110468	 0.054863	 0.116796	 -1.258462	 0.063284	 -0.012199	 -0.586005	 0.807740	 0
1502159867.601	 0	 -0.091827	 0.026146	 -0.103665	 0.055220	 0.116599	 -1.259224	 0.063304	 -0.012021	 -0.586307	 0.807522	 0
1502159867.611	 0	 -0.194166	 0.028550	 -0.098940	 0.055579	 0.115271	 -1.260135	 0.062869	 -0.011514	 -0.586700	 0.807278	 0
1502159867.621	 0	 -0.267484	 -0.018865	 -0.084220	 0.055296	 0.113041	 -1.260670	 0.061885	 -0.010987	 -0.586988	 0.807152	 0
1502159867.631	 0	 -0.319393	 -0.086337	 -0.066086	 0.054116	 0.110283	 -1.261146	 0.060426	 -0.010665	 -0.587292	 0.807046	 0
1502159867.641	 0	 -0.352111	 -0.149423	 -0.052129	 0.052278	 0.107036	 -1.261259	 0.058578	 -0.010453	 -0.587479	 0.807049	 0
1502159867.651	 0	 -0.383741	 -0.217831	 -0.034935	 0.050000	 0.103261	 -1.261442	 0.056387	 -0.010264	 -0.587716	 0.807035	 0
1502159867.661	 0	 -0.419687	 -0.283074	 -0.010293	 0.047379	 0.098975	 -1.261224	 0.053892	 -0.010052	 -0.587806	 0.807142	 0
1502159867.671	 0	 -0.455888	 -0.305726	 0.016319	 0.044600	 0.094319	 -1.260945	 0.051200	 -0.009793	 -0.587876	 0.807270	 0
1502159867.681	 0	 -0.466813	 -0.268534	 0.026801	 0.042101	 0.089724	 -1.260321	 0.048616	 -0.009432	 -0.587788	 0.807497	 0
1502159867.691	 0	 -0.438311	 -0.201193	 -0.009663	 0.040187	 0.085533	 -1.260132	 0.046365	 -0.008966	 -0.587846	 0.807593	 0
1502159867.701	 0	 -0.348204	 -0.066305	 -0.089871	 0.039516	 0.082242	 -1.260365	 0.044839	 -0.008272	 -0.588023	 0.807558	 0
1502159867.711	 0	 -0.223405	 -0.013159	 -0.193076	 0.039711	 0.080147	 -1.261958	 0.044046	 -0.007612	 -0.588703	 0.807112	 0
1502159867.721	 0	 -0.105622	 -0.035685	 -0.293884	 0.039856	 0.079186	 -1.264369	 0.043692	 -0.007322	 -0.589692	 0.806412	 0
1502159867.731	 0	 -0.029808	 -0.019134	 -0.352317	 0.040113	 0.078998	 -1.267784	 0.043680	 -0.007238	 -0.591066	 0.805407	 0
1502159867.741	 0	 -0.014189	 0.039560	 -0.348177	 0.040958	 0.079084	 -1.271122	 0.043953	 -0.006996	 -0.592389	 0.804422	 0
1502159867.751	 0	 -0.054315	 0.111664	 -0.283462	 0.042463	 0.078974	 -1.274184	 0.044344	 -0.006426	 -0.593589	 0.803520	 0
1502159867.761	 0	 -0.107421	 0.183665	 -0.171764	 0.044598	 0.078453	 -1.275963	 0.044764	 -0.005453	 -0.594267	 0.803003	 0
1502159867.771	 0	 -0.145565	 0.231291	 -0.036353	 0.047163	 0.077457	 -1.276638	 0.045125	 -0.004142	 -0.594501	 0.802817	 0
1502159867.781	 0	 -0.153697	 0.257828	 0.091839	 0.050068	 0.076135	 -1.275839	 0.045460	 -0.002563	 -0.594142	 0.803070	 0
1502159867.791	 0	 -0.138178	 0.282403	 0.176333	 0.053319	 0.074809	 -1.274214	 0.045895	 -0.000826	 -0.593444	 0.803565	 0
1502159867.801	 0	 -0.087129	 0.279584	 0.208738	 0.056597	 0.073900	 -1.271997	 0.046502	 0.000813	 -0.592497	 0.804229	 0
1502159867.811	 0	 -0.008150	 0.262080	 0.207143	 0.059620	 0.073769	 -1.269929	 0.047342	 0.002117	 -0.591597	 0.804839	 0
1502159867.821	 0	 0.095241	 0.275640	 0.186321	 0.062645	 0.074720	 -1.267981	 0.048617	 0.003099	 -0.590718	 0.805405	 0
1502159867.831	 0	 0.221953	 0.321344	 0.146258	 0.065934	 0.076989	 -1.266540	 0.050497	 0.003787	 -0.590002	 0.805812	 0
1502159867.841	 0	 0.374326	 0.374689	 0.077444	 0.069495	 0.080381	 -1.265784	 0.052910	 0.004238	 -0.589519	 0.806008	 0
1502159867.851	 0	 0.535547	 0.380181	 -0.000754	 0.073339	 0.085339	 -1.265955	 0.056037	 0.004316	 -0.589352	 0.805919	 0
1502159867.861	 0	 0.678677	 0.354636	 -0.038294	 0.077035	 0.091766	 -1.266705	 0.059710	 0.003880	 -0.589365	 0.805647	 0
1502159867.871	 0	 0.774776	 0.315912	 -0.016164	 0.080378	 0.099268	 -1.267557	 0.063710	 0.002978	 -0.589380	 0.805334	 0
1502159867.881	 0	 0.832392	 0.260947	 0.051783	 0.083175	 0.107471	 -1.267796	 0.067827	 0.001666	 -0.589125	 0.805189	 0
1502159867.891	 0	 0.866666	 0.185598	 0.118595	 0.085204	 0.116134	 -1.267475	 0.071900	 -0.000073	 -0.588635	 0.805195	 0
1502159867.901	 0	 0.884043	 0.109038	 0.153229	 0.086399	 0.125010	 -1.266655	 0.075812	 -0.002191	 -0.587949	 0.805334	 0
1502159867.911	 0	 0.883277	 0.033377	 0.197381	 0.086766	 0.133993	 -1.265584	 0.079524	 -0.004661	 -0.587175	 0.805530	 0
1502159867.921	 0	 0.852440	 -0.023316	 0.264802	 0.086411	 0.142804	 -1.263799	 0.082960	 -0.007337	 -0.586137	 0.805920	 0
1502159867.931	 0	 0.806621	 -0.069471	 0.331021	 0.085478	 0.151242	 -1.261331	 0.086083	 -0.010101	 -0.584853	 0.806495	 0
1502159867.941	 0	 0.755582	 -0.129509	 0.390846	 0.083857	 0.159219	 -1.258211	 0.088831	 -0.012969	 -0.583347	 0.807246	 0
1502159867.951	 0	 0.710029	 -0.206548	 0.437938	 0.081391	 0.166766	 -1.254501	 0.091172	 -0.016017	 -0.581654	 0.808152	 0
1502159867.961	 0	 0.666608	 -0.268652	 0.461452	 0.078159	 0.173861	 -1.250401	 0.093124	 -0.019215	 -0.579854	 0.809152	 0
1502159867.971	 0	 0.629423	 -0.307248	 0.483837	 0.074409	 0.180599	 -1.246055	 0.094798	 -0.022497	 -0.577993	 0.810204	 0
1502159867.981	 0	 0.592295	 -0.350133	 0.504104	 0.070191	 0.186970	 -1.241495	 0.096207	 -0.025845	 -0.576083	 0.811298	 0
1502159867.991	 0	 0.540628	 -0.430390	 0.483789	 0.065225	 0.192845	 -1.236866	 0.097217	 -0.029342	 -0.574201	 0.812392	 0
1502159868.001	 0	 0.490102	 -0.491462	 0.416345	 0.059613	 0.198125	 -1.232851	 0.097807	 -0.032953	 -0.572627	 0.813293	 0
1502159868.011	 0	 0.482840	 -0.478735	 0.349941	 0.054081	 0.203133	 -1.229413	 0.098314	 -0.036479	 -0.571298	 0.814016	 0
1502159868.021	 0	 0.499245	 -0.320969	 0.274546	 0.049722	 0.208249	 -1.226733	 0.099196	 -0.039593	 -0.570216	 0.814522	 0
1502159868.031	 0	 0.454978	 -0.208374	 0.241742	 0.047080	 0.213058	 -1.224559	 0.100439	 -0.041940	 -0.569270	 0.814914	 0
1502159868.041	 0	 0.494270	 -0.228330	 0.308370	 0.044339	 0.217942	 -1.221863	 0.101702	 -0.044320	 -0.568113	 0.815438	 0
1502159868.051	 0	 0.633617	 -0.332732	 0.272192	 0.040702	 0.224017	 -1.219204	 0.103200	 -0.047403	 -0.566971	 0.815872	 0
1502159868.061	 0	 0.783988	 -0.363561	 0.297820	 0.036469	 0.231161	 -1.216819	 0.104966	 -0.051041	 -0.565930	 0.816150	 0
1502159868.071	 0	 0.876098	 -0.239375	 0.533183	 0.032629	 0.239245	 -1.212346	 0.107291	 -0.054669	 -0.563980	 0.816962	 0
1502159868.081	 0	 0.890053	 -0.056134	 0.766773	 0.030026	 0.247544	 -1.205421	 0.110137	 -0.057704	 -0.560951	 0.818458	 0
1502159868.091	 0	 0.825314	 0.014725	 0.855943	 0.028191	 0.255309	 -1.197034	 0.113045	 -0.060170	 -0.557295	 0.820379	 0
1502159868.101	 0	 0.680197	 0.014693	 0.895711	 0.026339	 0.261816	 -1.188340	 0.115462	 -0.062251	 -0.553559	 0.822415	 0
1502159868.111	 0	 0.512551	 0.012358	 0.974925	 0.024711	 0.266568	 -1.178816	 0.117266	 -0.063684	 -0.549532	 0.824747	 0
1502159868.121	 0	 0.351200	 0.016452	 1.070196	 0.022981	 0.269559	 -1.168559	 0.118354	 -0.064617	 -0.545272	 0.827342	 0
1502159868.131	 0	 0.187881	 0.021575	 1.129092	 0.019831	 0.271498	 -1.156963	 0.118679	 -0.065764	 -0.540573	 0.830284	 0
1502159868.141	 0	 0.021295	 0.070382	 1.133242	 0.017320	 0.272245	 -1.145560	 0.118690	 -0.066334	 -0.535949	 0.833229	 0
1502159868.151	 0	 -0.171869	 0.141359	 1.087947	 0.016141	 0.271239	 -1.134262	 0.118330	 -0.065887	 -0.531344	 0.836260	 0
1502159868.161	 0	 -0.399258	 0.271743	 0.981243	 0.015726	 0.267885	 -1.124011	 0.117151	 -0.064567	 -0.527207	 0.839142	 0
1502159868.171	 0	 -0.682409	 0.501848	 0.806425	 0.017716	 0.261763	 -1.115023	 0.115388	 -0.061594	 -0.523549	 0.841895	 0
1502159868.181	 0	 -0.862489	 0.618759	 0.616636	 0.022050	 0.253507	 -1.108284	 0.113245	 -0.057217	 -0.520775	 0.844212	 0
1502159868.191	 0	 -0.883341	 0.443990	 0.490991	 0.026038	 0.244577	 -1.102775	 0.110666	 -0.052892	 -0.518561	 0.846197	 0
1502159868.201	 0	 -0.721816	 0.007472	 0.470165	 0.025998	 0.236957	 -1.098003	 0.107558	 -0.050666	 -0.516823	 0.847796	 0
1502159868.211	 0	 -0.446563	 -0.282312	 0.575650	 0.022453	 0.231898	 -1.092317	 0.104645	 -0.050557	 -0.514778	 0.849409	 0
1502159868.221	 0	 -0.192715	 -0.444470	 0.777829	 0.016663	 0.229516	 -1.085094	 0.102333	 -0.052032	 -0.512088	 0.851226	 0
1502159868.231	 0	 -0.000997	 -0.537872	 0.955833	 0.009317	 0.229172	 -1.075679	 0.100563	 -0.054597	 -0.508459	 0.853449	 0
1502159868.241	 0	 0.125679	 -0.571023	 1.046570	 0.001301	 0.230203	 -1.065438	 0.099261	 -0.057772	 -0.504452	 0.855767	 0
1502159868.251	 0	 0.173941	 -0.614326	 1.037406	 -0.007201	 0.231843	 -1.054672	 0.098149	 -0.061295	 -0.500212	 0.858136	 0
1502159868.261	 0	 0.145522	 -0.597473	 0.921657	 -0.015580	 0.233308	 -1.045108	 0.096993	 -0.064792	 -0.496473	 0.860179	 0
1502159868.271	 0	 0.083617	 -0.471164	 0.752864	 -0.022516	 0.234170	 -1.036904	 0.095920	 -0.067595	 -0.493254	 0.861934	 0
1502159868.281	 0	 0.005049	 -0.411009	 0.585302	 -0.028199	 0.234265	 -1.030749	 0.094774	 -0.069776	 -0.490869	 0.863248	 0
1502159868.291	 0	 -0.056049	 -0.414613	 0.407401	 -0.033400	 0.233696	 -1.026099	 0.093418	 -0.071665	 -0.489118	 0.864235	 0
1502159868.301	 0	 -0.052854	 -0.483782	 0.245123	 -0.038270	 0.232921	 -1.023748	 0.091977	 -0.073473	 -0.488343	 0.864675	 0
1502159868.311	 0	 -0.000259	 -0.653784	 0.144509	 -0.044501	 0.232550	 -1.022108	 0.090357	 -0.076002	 -0.487925	 0.864863	 0
1502159868.321	 0	 0.086234	 -0.835251	 0.111524	 -0.052478	 0.232922	 -1.021323	 0.088602	 -0.079506	 -0.487936	 0.864723	 0
1502159868.332	 0	 0.243966	 -1.019372	 0.122828	 -0.062159	 0.234669	 -1.020071	 0.087050	 -0.084058	 -0.487792	 0.864532	 0
1502159868.342	 0	 0.449707	 -1.213802	 0.141951	 -0.073746	 0.238238	 -1.018961	 0.085822	 -0.089875	 -0.487763	 0.864086	 0
1502159868.351	 0	 0.687237	 -1.402676	 0.199748	 -0.087296	 0.243879	 -1.016712	 0.085074	 -0.096983	 -0.487304	 0.863650	 0
1502159868.362	 0	 0.923306	 -1.556426	 0.303388	 -0.102819	 0.251678	 -1.013653	 0.084838	 -0.105413	 -0.486569	 0.863100	 0
1502159868.372	 0	 1.147834	 -1.586738	 0.444975	 -0.119496	 0.261493	 -1.008358	 0.085348	 -0.114706	 -0.484927	 0.862788	 0
1502159868.382	 0	 1.294908	 -1.514313	 0.607076	 -0.136856	 0.273327	 -1.001334	 0.086723	 -0.124666	 -0.482594	 0.862578	 0
1502159868.392	 0	 1.318846	 -1.381029	 0.814181	 -0.153780	 0.285294	 -0.991513	 0.088510	 -0.134307	 -0.479080	 0.862908	 0
1502159868.402	 0	 1.213046	 -1.103886	 1.000685	 -0.169038	 0.296084	 -0.980082	 0.090380	 -0.142845	 -0.474839	 0.863687	 0
1502159868.412	 0	 0.984471	 -0.758441	 1.136982	 -0.181400	 0.304446	 -0.966791	 0.092098	 -0.149459	 -0.469686	 0.865202	 0
1502159868.422	 0	 0.710545	 -0.462301	 1.224000	 -0.190957	 0.309882	 -0.953345	 0.093277	 -0.154176	 -0.464336	 0.867134	 0
1502159868.432	 0	 0.451905	 -0.228857	 1.309214	 -0.198206	 0.312450	 -0.939001	 0.093854	 -0.157210	 -0.458466	 0.869646	 0
1502159868.442	 0	 0.240288	 0.007049	 1.364759	 -0.203215	 0.312598	 -0.925104	 0.093876	 -0.158771	 -0.452651	 0.872403	 0
1502159868.452	 0	 0.074665	 0.236895	 1.392800	 -0.205867	 0.310911	 -0.910576	 0.093685	 -0.158894	 -0.446408	 0.875612	 0
1502159868.462	 0	 -0.095043	 0.457153	 1.386626	 -0.206153	 0.307559	 -0.897062	 0.093198	 -0.157692	 -0.440452	 0.878891	 0
1502159868.472	 0	 -0.266906	 0.697619	 1.358971	 -0.203900	 0.302605	 -0.883544	 0.092533	 -0.155059	 -0.434330	 0.882469	 0
1502159868.482	 0	 -0.459339	 0.993331	 1.324552	 -0.198510	 0.295918	 -0.871433	 0.091622	 -0.150766	 -0.428637	 0.886084	 0
1502159868.492	 0	 -0.683598	 1.262194	 1.290045	 -0.189973	 0.287267	 -0.859393	 0.090437	 -0.144696	 -0.422788	 0.890019	 0
1502159868.502	 0	 -0.919041	 1.277481	 1.238297	 -0.179980	 0.276475	 -0.848893	 0.088406	 -0.137631	 -0.417522	 0.893822	 0
1502159868.512	 0	 -0.980513	 0.931962	 1.138760	 -0.172666	 0.264742	 -0.838806	 0.085292	 -0.131610	 -0.412544	 0.897336	 0
1502159868.522	 0	 -0.875782	 0.874165	 1.156733	 -0.166551	 0.253897	 -0.829421	 0.082229	 -0.126352	 -0.407936	 0.900479	 0
1502159868.532	 0	 -0.656491	 0.865151	 1.238305	 -0.160485	 0.244789	 -0.818222	 0.080006	 -0.121401	 -0.402526	 0.903788	 0
1502159868.542	 0	 -0.336362	 0.583170	 1.304456	 -0.156819	 0.238603	 -0.806482	 0.078618	 -0.118094	 -0.396990	 0.906792	 0
1502159868.552	 0	 0.025392	 0.320687	 1.325858	 -0.156140	 0.235859	 -0.793125	 0.078280	 -0.116745	 -0.390863	 0.909653	 0
1502159868.562	 0	 0.384072	 0.077359	 1.288341	 -0.157957	 0.236759	 -0.780095	 0.079103	 -0.117226	 -0.385012	 0.912012	 0
1502159868.572	 0	 0.624171	 -0.098704	 1.219899	 -0.161772	 0.240474	 -0.766564	 0.080883	 -0.119104	 -0.379041	 0.914112	 0
1502159868.582	 0	 0.674567	 -0.111094	 1.163565	 -0.166115	 0.245196	 -0.754200	 0.082987	 -0.121429	 -0.373635	 0.915841	 0
1502159868.592	 0	 0.555407	 0.038188	 1.150490	 -0.169313	 0.249143	 -0.741465	 0.084997	 -0.123054	 -0.367996	 0.917721	 0
1502159868.602	 0	 0.348317	 0.248574	 1.178355	 -0.170473	 0.251132	 -0.729567	 0.086439	 -0.123421	 -0.362614	 0.919678	 0
1502159868.612	 0	 0.140213	 0.426980	 1.243778	 -0.169797	 0.250939	 -0.716759	 0.087258	 -0.122521	 -0.356684	 0.922036	 0
1502159868.622	 0	 -0.017629	 0.552515	 1.345005	 -0.167878	 0.248898	 -0.704029	 0.087423	 -0.120738	 -0.350687	 0.924553	 0
1502159868.632	 0	 -0.110095	 0.615721	 1.446871	 -0.165348	 0.245641	 -0.689702	 0.087199	 -0.118407	 -0.343886	 0.927426	 0
1502159868.642	 0	 -0.146809	 0.643120	 1.524618	 -0.162614	 0.241801	 -0.675395	 0.086706	 -0.115898	 -0.337053	 0.930293	 0
1502159868.652	 0	 -0.157594	 0.627047	 1.581303	 -0.159979	 0.237755	 -0.659699	 0.086147	 -0.113354	 -0.329552	 0.933341	 0
1502159868.662	 0	 -0.169018	 0.553466	 1.616822	 -0.158009	 0.233570	 -0.644432	 0.085356	 -0.111134	 -0.322254	 0.936224	 0
1502159868.672	 0	 -0.186999	 0.511790	 1.644686	 -0.156564	 0.229217	 -0.628090	 0.084433	 -0.109107	 -0.314448	 0.939196	 0
1502159868.682	 0	 -0.217844	 0.494516	 1.654195	 -0.155262	 0.224571	 -0.612444	 0.083283	 -0.107156	 -0.306943	 0.942002	 0
1502159868.692	 0	 -0.246461	 0.482603	 1.629468	 -0.154016	 0.219669	 -0.596261	 0.082006	 -0.105197	 -0.299159	 0.944834	 0
1502159868.702	 0	 -0.226134	 0.497675	 1.587818	 -0.152461	 0.214889	 -0.581310	 0.080742	 -0.103185	 -0.291924	 0.947425	 0
1502159868.712	 0	 -0.142653	 0.461023	 1.558521	 -0.151038	 0.210864	 -0.565722	 0.079826	 -0.101335	 -0.284388	 0.949991	 0
1502159868.722	 0	 -0.030655	 0.459737	 1.539949	 -0.149698	 0.207958	 -0.551010	 0.079366	 -0.099726	 -0.277275	 0.952299	 0
1502159868.732	 0	 0.066222	 0.482828	 1.535094	 -0.148128	 0.206126	 -0.535406	 0.079475	 -0.098121	 -0.269734	 0.954620	 0
1502159868.742	 0	 0.104776	 0.462885	 1.519362	 -0.146563	 0.204876	 -0.520696	 0.079800	 -0.096630	 -0.262615	 0.956728	 0
1502159868.752	 0	 0.063778	 0.379528	 1.498051	 -0.145633	 0.203468	 -0.505416	 0.079977	 -0.095403	 -0.255229	 0.958833	 0
1502159868.762	 0	 -0.033606	 0.280818	 1.477534	 -0.145600	 0.201253	 -0.491337	 0.079582	 -0.094562	 -0.248421	 0.960735	 0
1502159868.772	 0	 -0.138785	 0.232115	 1.463187	 -0.146101	 0.197993	 -0.476681	 0.078638	 -0.093847	 -0.241318	 0.962691	 0
1502159868.782	 0	 -0.203871	 0.252931	 1.448808	 -0.146460	 0.193988	 -0.463191	 0.077289	 -0.093045	 -0.234736	 0.964504	 0
1502159868.792	 0	 -0.218124	 0.324172	 1.443094	 -0.146112	 0.189729	 -0.448957	 0.075925	 -0.091869	 -0.227747	 0.966399	 0
1502159868.802	 0	 -0.199406	 0.391407	 1.458984	 -0.145028	 0.185584	 -0.435460	 0.074650	 -0.090399	 -0.221074	 0.968185	 0
1502159868.812	 0	 -0.162299	 0.415107	 1.474088	 -0.143569	 0.181771	 -0.420942	 0.073606	 -0.088764	 -0.213888	 0.970028	 0
1502159868.822	 0	 -0.126062	 0.417509	 1.471088	 -0.142012	 0.178344	 -0.407209	 0.072706	 -0.087166	 -0.207077	 0.971718	 0
1502159868.832	 0	 -0.102630	 0.423001	 1.469070	 -0.140369	 0.175203	 -0.392563	 0.071974	 -0.085537	 -0.199815	 0.973436	 0
1502159868.842	 0	 -0.086754	 0.442291	 1.468020	 -0.138520	 0.172260	 -0.378921	 0.071297	 -0.083876	 -0.193028	 0.974998	 0
1502159868.852	 0	 -0.078373	 0.457267	 1.480845	 -0.136499	 0.169451	 -0.364168	 0.070727	 -0.082117	 -0.185686	 0.976614	 0
1502159868.862	 0	 -0.081677	 0.455106	 1.510781	 -0.134421	 0.166625	 -0.350220	 0.070099	 -0.080369	 -0.178723	 0.978103	 0
1502159868.872	 0	 -0.077410	 0.432769	 1.542981	 -0.132547	 0.163795	 -0.334883	 0.069485	 -0.078684	 -0.171079	 0.979649	 0
1502159868.882	 0	 -0.071781	 0.369969	 1.562516	 -0.131163	 0.161027	 -0.320367	 0.068807	 -0.077287	 -0.163844	 0.981044	 0
1502159868.892	 0	 -0.064961	 0.289069	 1.578921	 -0.130569	 0.158309	 -0.304622	 0.068123	 -0.076253	 -0.156024	 0.982446	 0
1502159868.902	 0	 -0.059251	 0.217751	 1.591004	 -0.130711	 0.155644	 -0.289798	 0.067363	 -0.075631	 -0.148672	 0.983686	 0
1502159868.912	 0	 -0.070464	 0.139913	 1.581620	 -0.131535	 0.152912	 -0.273970	 0.066554	 -0.075322	 -0.140836	 0.984917	 0
1502159868.922	 0	 -0.105062	 0.068304	 1.545331	 -0.133028	 0.149914	 -0.259533	 0.065516	 -0.075390	 -0.133689	 0.985977	 0
1502159868.932	 0	 -0.139850	 0.039297	 1.492829	 -0.134785	 0.146593	 -0.244608	 0.064326	 -0.075573	 -0.126290	 0.987016	 0
1502159868.942	 0	 -0.137388	 0.019091	 1.440516	 -0.136628	 0.143235	 -0.231301	 0.063056	 -0.075869	 -0.119681	 0.987899	 0
1502159868.952	 0	 -0.110313	 -0.020094	 1.390564	 -0.138689	 0.140134	 -0.217415	 0.061930	 -0.076288	 -0.112790	 0.988748	 0
1502159868.962	 0	 -0.069506	 -0.047472	 1.355623	 -0.140982	 0.137441	 -0.204979	 0.060948	 -0.076906	 -0.106626	 0.989445	 0
1502159868.972	 0	 -0.039558	 -0.051485	 1.332286	 -0.143310	 0.135101	 -0.191706	 0.060181	 -0.077546	 -0.100054	 0.990128	 0
1502159868.982	 0	 -0.027644	 -0.078021	 1.324976	 -0.145743	 0.132906	 -0.179565	 0.059447	 -0.078292	 -0.094042	 0.990703	 0
1502159868.992	 0	 -0.054771	 -0.174089	 1.325196	 -0.148941	 0.130517	 -0.166401	 0.058636	 -0.079391	 -0.087533	 0.991260	 0
1502159869.002	 0	 -0.106390	 -0.274591	 1.324214	 -0.153131	 0.127595	 -0.154403	 0.057491	 -0.081010	 -0.081605	 0.991702	 0
1502159869.012	 0	 -0.136846	 -0.340843	 1.309318	 -0.158026	 0.124253	 -0.141522	 0.056168	 -0.082957	 -0.075234	 0.992121	 0
1502159869.022	 0	 -0.122821	 -0.357774	 1.292357	 -0.163142	 0.120909	 -0.129946	 0.054809	 -0.085070	 -0.069506	 0.992435	 0
1502159869.032	 0	 -0.073870	 -0.335064	 1.282941	 -0.168072	 0.117910	 -0.117356	 0.053698	 -0.087090	 -0.063273	 0.992738	 0
1502159869.042	 0	 0.001597	 -0.283371	 1.257521	 -0.172509	 0.115595	 -0.105956	 0.052915	 -0.088931	 -0.057638	 0.992960	 0
1502159869.052	 0	 0.064357	 -0.233895	 1.213851	 -0.176351	 0.113956	 -0.093701	 0.052546	 -0.090479	 -0.051585	 0.993172	 0
1502159869.062	 0	 0.113511	 -0.212211	 1.149889	 -0.179849	 0.112888	 -0.083087	 0.052414	 -0.091916	 -0.046360	 0.993305	 0
1502159869.072	 0	 0.160613	 -0.200122	 1.079533	 -0.183152	 0.112371	 -0.071951	 0.052601	 -0.093256	 -0.040893	 0.993410	 0
1502159869.082	 0	 0.205442	 -0.179539	 1.032661	 -0.186211	 0.112378	 -0.062401	 0.052993	 -0.094524	 -0.036230	 0.993450	 0
1502159869.092	 0	 0.249058	 -0.157897	 1.018932	 -0.189023	 0.112820	 -0.051880	 0.053666	 -0.095645	 -0.031099	 0.993481	 0
1502159869.102	 0	 0.293685	 -0.140523	 1.027689	 -0.191669	 0.113659	 -0.042388	 0.054501	 -0.096710	 -0.026495	 0.993466	 0
1502159869.112	 0	 0.328767	 -0.134940	 1.042852	 -0.194273	 0.114827	 -0.031497	 0.055580	 -0.097711	 -0.021212	 0.993435	 0
1502159869.122	 0	 0.330890	 -0.141317	 1.054655	 -0.196955	 0.116040	 -0.021630	 0.056642	 -0.098771	 -0.016445	 0.993360	 0
1502159869.132	 0	 0.290323	 -0.127775	 1.050079	 -0.199559	 0.116947	 -0.010636	 0.057620	 -0.099752	 -0.011104	 0.993280	 0
1502159869.142	 0	 0.209246	 -0.098556	 1.023805	 -0.201862	 0.117156	 -0.001198	 0.058186	 -0.100622	 -0.006494	 0.993200	 0
1502159869.152	 0	 0.121801	 -0.064044	 0.980357	 -0.203741	 0.116562	 0.008877	 0.058396	 -0.101263	 -0.001515	 0.993143	 0
1502159869.162	 0	 0.065418	 -0.059134	 0.945772	 -0.205449	 0.115370	 0.017219	 0.058228	 -0.101876	 0.002638	 0.993088	 0
1502159869.172	 0	 0.049495	 -0.060323	 0.932848	 -0.207113	 0.113939	 0.026538	 0.057998	 -0.102444	 0.007291	 0.993019	 0
1502159869.182	 0	 0.081479	 -0.061148	 0.931974	 -0.208798	 0.112706	 0.034664	 0.057811	 -0.103057	 0.011341	 0.992929	 0
1502159869.192	 0	 0.144343	 -0.054312	 0.932331	 -0.210428	 0.112016	 0.044116	 0.057968	 -0.103602	 0.016023	 0.992798	 0
1502159869.202	 0	 0.206131	 -0.046392	 0.928393	 -0.211982	 0.111939	 0.052419	 0.058375	 -0.104133	 0.020103	 0.992645	 0
1502159869.212	 0	 0.268033	 -0.057629	 0.922391	 -0.213591	 0.112456	 0.062053	 0.059153	 -0.104639	 0.024809	 0.992439	 0
1502159869.222	 0	 0.323797	 -0.105135	 0.909012	 -0.215610	 0.113685	 0.070485	 0.060232	 -0.105366	 0.028865	 0.992187	 0
1502159869.232	 0	 0.345381	 -0.136914	 0.888945	 -0.218041	 0.115201	 0.080029	 0.061527	 -0.106248	 0.033442	 0.991870	 0
1502159869.242	 0	 0.328292	 -0.112540	 0.860937	 -0.220351	 0.116666	 0.088120	 0.062725	 -0.107107	 0.037300	 0.991565	 0
1502159869.252	 0	 0.289727	 -0.058501	 0.827334	 -0.222099	 0.117856	 0.097006	 0.063826	 -0.107661	 0.041583	 0.991264	 0
1502159869.262	 0	 0.226587	 0.006001	 0.793541	 -0.223155	 0.118557	 0.104210	 0.064585	 -0.107934	 0.045079	 0.991032	 0
1502159869.272	 0	 0.162459	 0.051338	 0.766234	 -0.223626	 0.118689	 0.112197	 0.065092	 -0.107904	 0.049014	 0.990816	 0
1502159869.282	 0	 0.101689	 0.066863	 0.746554	 -0.223812	 0.118262	 0.118635	 0.065232	 -0.107800	 0.052221	 0.990654	 0
1502159869.292	 0	 0.053806	 0.061155	 0.739875	 -0.223978	 0.117331	 0.126057	 0.065176	 -0.107671	 0.055945	 0.990468	 0
1502159869.302	 0	 0.036742	 0.070615	 0.727970	 -0.224051	 0.116130	 0.132131	 0.064910	 -0.107552	 0.059020	 0.990320	 0
1502159869.312	 0	 0.050468	 0.108010	 0.702233	 -0.223759	 0.115012	 0.139173	 0.064727	 -0.107221	 0.062580	 0.990149	 0
1502159869.322	 0	 0.085478	 0.157272	 0.669093	 -0.222946	 0.114286	 0.144761	 0.064641	 -0.106666	 0.065415	 0.990031	 0
1502159869.332	 0	 0.108943	 0.176614	 0.638143	 -0.221887	 0.113939	 0.151327	 0.064782	 -0.105943	 0.068719	 0.989876	 0
1502159869.342	 0	 0.096254	 0.175459	 0.614541	 -0.220856	 0.113670	 0.156433	 0.064883	 -0.105278	 0.071295	 0.989758	 0
1502159869.352	 0	 0.052616	 0.174072	 0.600379	 -0.219892	 0.113108	 0.162519	 0.064889	 -0.104627	 0.074370	 0.989600	 0
1502159869.362	 0	 -0.005977	 0.173634	 0.593610	 -0.218913	 0.112041	 0.167230	 0.064571	 -0.104037	 0.076792	 0.989498	 0
1502159869.372	 0	 -0.055185	 0.202015	 0.596411	 -0.217703	 0.110464	 0.172979	 0.064042	 -0.103325	 0.079765	 0.989372	 0
1502159869.382	 0	 -0.073670	 0.250864	 0.614288	 -0.216025	 0.108585	 0.177646	 0.063286	 -0.102434	 0.082233	 0.989312	 0
1502159869.392	 0	 -0.063251	 0.269051	 0.645294	 -0.214110	 0.106632	 0.183779	 0.062553	 -0.101387	 0.085435	 0.989194	 0
1502159869.402	 0	 -0.055953	 0.269097	 0.685981	 -0.212215	 0.104657	 0.189121	 0.061764	 -0.100381	 0.088245	 0.989100	 0
1502159869.412	 0	 -0.059463	 0.289312	 0.730798	 -0.210231	 0.102562	 0.196084	 0.060988	 -0.099291	 0.091865	 0.988928	 0
1502159869.422	 0	 -0.068439	 0.337163	 0.771197	 -0.207873	 0.100320	 0.202249	 0.060074	 -0.098055	 0.095106	 0.988801	 0
1502159869.432	 0	 -0.080596	 0.393504	 0.796571	 -0.204993	 0.097946	 0.209878	 0.059133	 -0.096531	 0.099091	 0.988616	 0
1502159869.442	 0	 -0.090597	 0.453068	 0.809109	 -0.201535	 0.095481	 0.216489	 0.058058	 -0.094765	 0.102590	 0.988494	 0
1502159869.452	 0	 -0.097283	 0.502013	 0.807805	 -0.197568	 0.092986	 0.224289	 0.056984	 -0.092722	 0.106689	 0.988317	 0
1502159869.462	 0	 -0.097300	 0.514796	 0.792780	 -0.193393	 0.090536	 0.230805	 0.055847	 -0.090619	 0.110151	 0.988197	 0
1502159869.482	 0	 -0.050924	 0.461896	 0.737655	 -0.185440	 0.086370	 0.244464	 0.053944	 -0.086569	 0.117324	 0.987840	 0
1502159869.472	 0	 -0.082145	 0.492541	 0.769431	 -0.189296	 0.088262	 0.238324	 0.054832	 -0.088524	 0.114093	 0.987996	 0
1502159869.492	 0	 -0.007851	 0.415380	 0.695314	 -0.181935	 0.084957	 0.251414	 0.053336	 -0.084742	 0.120918	 0.987598	 0
1502159869.502	 0	 0.034235	 0.356062	 0.655160	 -0.178943	 0.084020	 0.256894	 0.052921	 -0.083180	 0.123748	 0.987402	 0
1502159869.512	 0	 0.050922	 0.262458	 0.623547	 -0.176768	 0.083296	 0.263234	 0.052689	 -0.081987	 0.126969	 0.987106	 0
1502159869.522	 0	 0.029420	 0.133432	 0.597190	 -0.175764	 0.082419	 0.268127	 0.052392	 -0.081422	 0.129450	 0.986846	 0
1502159869.532	 0	 -0.009076	 0.000017	 0.563263	 -0.176032	 0.081200	 0.273787	 0.052039	 -0.081491	 0.132292	 0.986482	 0
1502159869.542	 0	 -0.029743	 -0.086400	 0.530325	 -0.177142	 0.079994	 0.277927	 0.051689	 -0.082015	 0.134361	 0.986177	 0
1502159869.552	 0	 -0.011359	 -0.106466	 0.489868	 -0.178592	 0.078917	 0.282834	 0.051459	 -0.082681	 0.136793	 0.985799	 0
1502159869.562	 0	 0.032335	 -0.078438	 0.449377	 -0.179823	 0.078295	 0.286258	 0.051379	 -0.083244	 0.138478	 0.985520	 0
1502159869.572	 0	 0.084413	 -0.030137	 0.418487	 -0.180587	 0.078237	 0.290590	 0.051584	 -0.083513	 0.140595	 0.985187	 0
1502159869.582	 0	 0.131095	 0.017079	 0.401468	 -0.180882	 0.078682	 0.293685	 0.051953	 -0.083546	 0.142091	 0.984950	 0
1502159869.592	 0	 0.157401	 0.072672	 0.400334	 -0.180638	 0.079471	 0.297911	 0.052500	 -0.083256	 0.144141	 0.984648	 0
1502159869.602	 0	 0.153861	 0.124831	 0.407593	 -0.179882	 0.080284	 0.301046	 0.052975	 -0.082739	 0.145666	 0.984441	 0
1502159869.612	 0	 0.122558	 0.178916	 0.423232	 -0.178494	 0.080426	 0.305410	 0.053123	 -0.081929	 0.147843	 0.984177	 0
1502159869.622	 0	 0.072042	 0.232849	 0.447313	 -0.176538	 0.080017	 0.308804	 0.052915	 -0.080909	 0.149584	 0.984009	 0
1502159869.632	 0	 0.007802	 0.252588	 0.490701	 -0.174326	 0.078831	 0.313579	 0.052357	 -0.079788	 0.152046	 0.983753	 0
1502159869.642	 0	 -0.071216	 0.243464	 0.540529	 -0.172257	 0.076835	 0.317623	 0.051378	 -0.078825	 0.154180	 0.983550	 0
1502159869.652	 0	 -0.157629	 0.224690	 0.590354	 -0.170464	 0.073955	 0.323098	 0.050039	 -0.078038	 0.157048	 0.983228	 0
1502159869.662	 0	 -0.220488	 0.191193	 0.633959	 -0.169039	 0.070353	 0.327824	 0.048341	 -0.077517	 0.159567	 0.982948	 0
1502159869.672	 0	 -0.245994	 0.161163	 0.662804	 -0.167952	 0.066368	 0.333915	 0.046533	 -0.077171	 0.162762	 0.982539	 0
1502159869.682	 0	 -0.242807	 0.151598	 0.679974	 -0.167074	 0.062342	 0.339141	 0.044687	 -0.076962	 0.165526	 0.982179	 0
1502159869.692	 0	 -0.231197	 0.155960	 0.698206	 -0.166174	 0.058567	 0.345618	 0.043008	 -0.076703	 0.168890	 0.981702	 0
1502159869.702	 0	 -0.228076	 0.151717	 0.723911	 -0.165292	 0.054931	 0.351274	 0.041367	 -0.076469	 0.171841	 0.981278	 0
1502159869.712	 0	 -0.240954	 0.143091	 0.759163	 -0.164460	 0.051241	 0.358292	 0.039754	 -0.076247	 0.175459	 0.980722	 0
1502159869.722	 0	 -0.259145	 0.130166	 0.796539	 -0.163701	 0.047370	 0.364585	 0.038030	 -0.076103	 0.178723	 0.980212	 0
1502159869.732	 0	 -0.258091	 0.109938	 0.828710	 -0.163064	 0.043438	 0.372282	 0.036340	 -0.076010	 0.182672	 0.979555	 0
1502159869.742	 0	 -0.222948	 0.096350	 0.856784	 -0.162483	 0.039712	 0.379240	 0.034728	 -0.075952	 0.186245	 0.978945	 0
1502159869.752	 0	 -0.165213	 0.058441	 0.869047	 -0.162110	 0.036409	 0.387524	 0.033392	 -0.075944	 0.190442	 0.978184	 0
1502159869.762	 0	 -0.112403	 -0.023167	 0.846159	 -0.162380	 0.033591	 0.394719	 0.032314	 -0.076233	 0.194072	 0.977484	 0
1502159869.772	 0	 -0.089249	 -0.113526	 0.792113	 -0.163510	 0.031122	 0.402526	 0.031519	 -0.076906	 0.197970	 0.976676	 0
1502159869.782	 0	 -0.104607	 -0.174334	 0.725949	 -0.165288	 0.028659	 0.408633	 0.030731	 -0.077927	 0.201027	 0.975995	 0
1502159869.792	 0	 -0.138245	 -0.217180	 0.673509	 -0.167492	 0.025962	 0.415180	 0.029896	 -0.079180	 0.204300	 0.975241	 0
1502159869.802	 0	 -0.177545	 -0.233448	 0.663711	 -0.169890	 0.022894	 0.420363	 0.028855	 -0.080591	 0.206922	 0.974603	 0
1502159869.812	 0	 -0.194790	 -0.222928	 0.694581	 -0.172197	 0.019517	 0.426781	 0.027712	 -0.081979	 0.210161	 0.973828	 0
1502159869.822	 0	 -0.194114	 -0.196310	 0.752235	 -0.174269	 0.015996	 0.432634	 0.026460	 -0.083283	 0.213133	 0.973105	 0
1502159869.832	 0	 -0.179902	 -0.129106	 0.825850	 -0.175752	 0.012456	 0.440244	 0.025217	 -0.084289	 0.216969	 0.972204	 0
1502159869.842	 0	 -0.157283	 -0.046946	 0.910155	 -0.176411	 0.008935	 0.447669	 0.023893	 -0.084905	 0.220722	 0.971338	 0
1502159869.852	 0	 -0.121926	 0.048091	 0.988069	 -0.176116	 0.005532	 0.456985	 0.022604	 -0.085034	 0.225395	 0.970284	 0
1502159869.862	 0	 -0.079132	 0.157032	 1.050998	 -0.174716	 0.002369	 0.465949	 0.021291	 -0.084617	 0.229892	 0.969295	 0
1502159869.872	 0	 -0.027617	 0.244728	 1.100163	 -0.172359	 -0.000342	 0.476619	 0.020153	 -0.083681	 0.235199	 0.968127	 0
1502159869.882	 0	 0.008254	 0.281200	 1.137669	 -0.169522	 -0.002571	 0.486622	 0.019153	 -0.082475	 0.240158	 0.967032	 0
1502159869.892	 0	 0.003946	 0.268389	 1.166570	 -0.166713	 -0.004615	 0.498079	 0.018293	 -0.081258	 0.245803	 0.965733	 0
1502159869.902	 0	 -0.049197	 0.226448	 1.192085	 -0.164264	 -0.006957	 0.508663	 0.017286	 -0.080273	 0.251025	 0.964489	 0
1502159869.912	 0	 -0.141607	 0.153349	 1.217483	 -0.162469	 -0.010077	 0.520433	 0.016025	 -0.079705	 0.256834	 0.963028	 0
1502159869.922	 0	 -0.227504	 0.068563	 1.235484	 -0.161472	 -0.014063	 0.532263	 0.014448	 -0.079651	 0.262685	 0.961478	 0
1502159869.932	 0	 -0.281536	 0.009543	 1.249303	 -0.161060	 -0.018688	 0.543029	 0.012601	 -0.079991	 0.268035	 0.959998	 0
1502159869.942	 0	 -0.299403	 -0.041716	 1.263302	 -0.161095	 -0.023606	 0.554968	 0.010725	 -0.080600	 0.273943	 0.958300	 0
1502159869.952	 0	 -0.291789	 -0.076807	 1.277391	 -0.161452	 -0.028551	 0.565937	 0.008850	 -0.081396	 0.279375	 0.956683	 0
1502159869.962	 0	 -0.278920	 -0.101210	 1.294678	 -0.162036	 -0.033411	 0.578226	 0.007111	 -0.082307	 0.285423	 0.954832	 0
1502159869.972	 0	 -0.276807	 -0.117172	 1.322562	 -0.162733	 -0.038274	 0.589596	 0.005361	 -0.083298	 0.291021	 0.953066	 0
1502159869.982	 0	 -0.283276	 -0.126814	 1.355717	 -0.163473	 -0.043234	 0.602451	 0.003645	 -0.084343	 0.297317	 0.951037	 0
1502159869.992	 0	 -0.296021	 -0.154615	 1.387839	 -0.164327	 -0.048378	 0.614409	 0.001834	 -0.085495	 0.303179	 0.949086	 0
1502159870.002	 0	 -0.319232	 -0.209111	 1.410375	 -0.165588	 -0.053767	 0.627753	 0.000045	 -0.086902	 0.309694	 0.946854	 0
1502159870.012	 0	 -0.351055	 -0.245573	 1.428512	 -0.167212	 -0.059503	 0.640040	 -0.001879	 -0.088559	 0.315707	 0.944711	 0
1502159870.022	 0	 -0.386357	 -0.238387	 1.449662	 -0.168793	 -0.065641	 0.653678	 -0.003918	 -0.090289	 0.322356	 0.942292	 0
1502159870.032	 0	 -0.403898	 -0.183107	 1.481417	 -0.169814	 -0.072091	 0.666337	 -0.006217	 -0.091833	 0.328538	 0.939993	 0
1502159870.042	 0	 -0.388431	 -0.114834	 1.509047	 -0.170071	 -0.078535	 0.680538	 -0.008549	 -0.093056	 0.335422	 0.937419	 0
1502159870.052	 0	 -0.330346	 -0.028149	 1.516544	 -0.169416	 -0.084498	 0.693655	 -0.010846	 -0.093804	 0.341756	 0.935030	 0
1502159870.062	 0	 -0.249996	 0.082154	 1.514452	 -0.167623	 -0.089732	 0.708213	 -0.012922	 -0.093938	 0.348710	 0.932419	 0
1502159870.072	 0	 -0.158917	 0.186140	 1.506033	 -0.164662	 -0.094021	 0.721628	 -0.014817	 -0.093392	 0.355068	 0.930043	 0
1502159870.082	 0	 -0.071899	 0.256023	 1.496655	 -0.160854	 -0.097375	 0.736357	 -0.016378	 -0.092328	 0.361977	 0.927456	 0
1502159870.092	 0	 -0.006080	 0.300187	 1.495806	 -0.156491	 -0.099950	 0.749938	 -0.017749	 -0.090884	 0.368301	 0.925081	 0
1502159870.102	 0	 0.055534	 0.329404	 1.503548	 -0.151744	 -0.101858	 0.764916	 -0.018841	 -0.089176	 0.375226	 0.922439	 0
1502159870.112	 0	 0.144892	 0.334330	 1.539362	 -0.146804	 -0.102943	 0.778960	 -0.019658	 -0.087237	 0.381675	 0.919958	 0
1502159870.122	 0	 0.252639	 0.279742	 1.597983	 -0.142201	 -0.102988	 0.795054	 -0.019871	 -0.085290	 0.389021	 0.917054	 0
1502159870.132	 0	 0.316488	 0.259983	 1.651922	 -0.137871	 -0.102257	 0.810529	 -0.019733	 -0.083320	 0.396047	 0.914226	 0
1502159870.142	 0	 0.326878	 0.277092	 1.693629	 -0.133394	 -0.101285	 0.827773	 -0.019474	 -0.081255	 0.403852	 0.910998	 0
1502159870.152	 0	 0.295969	 0.264060	 1.715958	 -0.128947	 -0.100488	 0.843946	 -0.019368	 -0.079230	 0.411147	 0.907910	 0
1502159870.162	 0	 0.230047	 0.240136	 1.711378	 -0.124755	 -0.100178	 0.861365	 -0.019415	 -0.077436	 0.418993	 0.904470	 0
1502159870.172	 0	 0.132221	 0.213865	 1.688428	 -0.120866	 -0.100670	 0.877093	 -0.019856	 -0.075937	 0.426064	 0.901279	 0
1502159870.182	 0	 -0.011574	 0.215988	 1.660814	 -0.117032	 -0.102389	 0.893790	 -0.020826	 -0.074747	 0.433562	 0.897774	 0
1502159870.192	 0	 -0.176642	 0.218994	 1.625586	 -0.113163	 -0.105615	 0.908636	 -0.022570	 -0.073871	 0.440219	 0.894559	 0
1502159870.202	 0	 -0.344897	 0.224133	 1.579631	 -0.109270	 -0.110393	 0.924215	 -0.024999	 -0.073366	 0.447190	 0.891072	 0
1502159870.212	 0	 -0.497410	 0.266687	 1.534688	 -0.105038	 -0.116623	 0.937826	 -0.028233	 -0.073050	 0.453257	 0.887930	 0
1502159870.222	 0	 -0.614993	 0.329710	 1.524103	 -0.100150	 -0.124020	 0.952464	 -0.032104	 -0.072773	 0.459736	 0.884484	 0
1502159870.232	 0	 -0.668657	 0.374044	 1.548202	 -0.094608	 -0.132079	 0.965962	 -0.036465	 -0.072400	 0.465655	 0.881243	 0
1502159870.242	 0	 -0.664641	 0.391107	 1.584523	 -0.088669	 -0.140189	 0.981188	 -0.040885	 -0.071962	 0.472270	 0.877557	 0
1502159870.252	 0	 -0.634025	 0.412593	 1.632759	 -0.082335	 -0.147987	 0.995579	 -0.045302	 -0.071331	 0.478449	 0.874038	 0
1502159870.262	 0	 -0.603409	 0.428787	 1.682078	 -0.075585	 -0.155406	 1.011946	 -0.049593	 -0.070545	 0.485417	 0.870017	 0
1502159870.272	 0	 -0.573624	 0.407713	 1.726190	 -0.068746	 -0.162440	 1.027523	 -0.053781	 -0.069680	 0.491976	 0.866145	 0
1502159870.282	 0	 -0.541437	 0.356827	 1.750116	 -0.062195	 -0.169056	 1.044774	 -0.057674	 -0.068954	 0.499204	 0.861806	 0
1502159870.292	 0	 -0.525132	 0.307982	 1.739708	 -0.056011	 -0.175373	 1.060813	 -0.061401	 -0.068347	 0.505859	 0.857707	 0
1502159870.302	 0	 -0.523629	 0.262206	 1.699256	 -0.050229	 -0.181506	 1.077905	 -0.064922	 -0.067963	 0.512918	 0.853274	 0
1502159870.312	 0	 -0.547683	 0.221549	 1.647937	 -0.044861	 -0.187693	 1.093225	 -0.068427	 -0.067774	 0.519175	 0.849221	 0
1502159870.322	 0	 -0.582377	 0.168046	 1.608366	 -0.039941	 -0.194123	 1.109442	 -0.071893	 -0.067928	 0.525768	 0.844855	 0
1502159870.332	 0	 -0.625355	 0.056974	 1.592502	 -0.035915	 -0.200872	 1.124164	 -0.075306	 -0.068546	 0.531702	 0.840785	 0
1502159870.342	 0	 -0.686490	 -0.060641	 1.597948	 -0.032996	 -0.208098	 1.140179	 -0.078569	 -0.069860	 0.538159	 0.836258	 0
1502159870.352	 0	 -0.769241	 -0.144371	 1.633082	 -0.030799	 -0.216096	 1.155247	 -0.081973	 -0.071702	 0.544178	 0.831868	 0
1502159870.362	 0	 -0.853252	 -0.217438	 1.694899	 -0.029085	 -0.224932	 1.172195	 -0.085496	 -0.074108	 0.550922	 0.826849	 0
1502159870.372	 0	 -0.918233	 -0.280759	 1.777110	 -0.027707	 -0.234479	 1.188726	 -0.089198	 -0.076894	 0.557427	 0.821828	 0
1502159870.382	 0	 -0.951584	 -0.289550	 1.867855	 -0.026170	 -0.244450	 1.207470	 -0.092986	 -0.079903	 0.564751	 0.816100	 0
1502159870.392	 0	 -0.932070	 -0.218082	 1.948979	 -0.023722	 -0.254324	 1.225853	 -0.096959	 -0.082574	 0.571810	 0.810438	 0
1502159870.402	 0	 -0.868131	 -0.077030	 2.006561	 -0.019645	 -0.263626	 1.246293	 -0.101041	 -0.084606	 0.579552	 0.804206	 0
1502159870.412	 0	 -0.770268	 0.110093	 2.038493	 -0.013474	 -0.271930	 1.266056	 -0.105332	 -0.085568	 0.586853	 0.798237	 0
1502159870.422	 0	 -0.672217	 0.282299	 2.048027	 -0.005267	 -0.279096	 1.287277	 -0.109700	 -0.085559	 0.594568	 0.791915	 0
1502159870.432	 0	 -0.598232	 0.390420	 2.042697	 0.004338	 -0.285266	 1.307420	 -0.114149	 -0.084742	 0.601714	 0.785954	 0
1502159870.442	 0	 -0.565395	 0.432206	 2.030964	 0.014662	 -0.290791	 1.328718	 -0.118538	 -0.083616	 0.609197	 0.779635	 0
1502159870.452	 0	 -0.559550	 0.357716	 2.010970	 0.024606	 -0.295974	 1.348728	 -0.122761	 -0.082555	 0.616113	 0.773637	 0
1502159870.462	 0	 -0.586116	 0.186051	 1.982613	 0.033133	 -0.301173	 1.369742	 -0.126534	 -0.082200	 0.623404	 0.767198	 0
1502159870.472	 0	 -0.641438	 0.020542	 1.943367	 0.039905	 -0.306726	 1.389357	 -0.129960	 -0.082622	 0.630158	 0.761038	 0
1502159870.482	 0	 -0.695067	 -0.066117	 1.890979	 0.045613	 -0.312739	 1.409671	 -0.133189	 -0.083717	 0.637132	 0.754525	 0
1502159870.492	 0	 -0.724409	 -0.101468	 1.818213	 0.050783	 -0.319048	 1.428325	 -0.136412	 -0.085069	 0.643413	 0.748444	 0
1502159870.502	 0	 -0.706800	 -0.123679	 1.712522	 0.055533	 -0.325274	 1.447071	 -0.139446	 -0.086624	 0.649681	 0.742266	 0
1502159870.512	 0	 -0.633647	 -0.145460	 1.575076	 0.059726	 -0.330875	 1.463405	 -0.142154	 -0.088070	 0.655062	 0.736833	 0
1502159870.522	 0	 -0.513547	 -0.156239	 1.410062	 0.063325	 -0.335439	 1.479133	 -0.144300	 -0.089394	 0.660273	 0.731587	 0
1502159870.532	 0	 -0.350696	 -0.174145	 1.226082	 0.066166	 -0.338548	 1.491889	 -0.145790	 -0.090325	 0.664507	 0.727331	 0
1502159870.542	 0	 -0.177313	 -0.162151	 1.029212	 0.068337	 -0.340023	 1.503473	 -0.146518	 -0.090882	 0.668448	 0.723494	 0
1502159870.553	 0	 -0.052133	 -0.106837	 0.824391	 0.070216	 -0.340200	 1.511863	 -0.146829	 -0.090879	 0.671327	 0.720761	 0
1502159870.562	 0	 0.014364	 -0.042392	 0.623461	 0.072006	 -0.339725	 1.518967	 -0.146940	 -0.090594	 0.673785	 0.718477	 0
1502159870.572	 0	 0.055218	 0.010118	 0.459861	 0.073730	 -0.338919	 1.523283	 -0.147041	 -0.090017	 0.675265	 0.717138	 0
1502159870.583	 0	 0.108704	 0.038230	 0.369161	 0.075398	 -0.337696	 1.527303	 -0.146991	 -0.089296	 0.676670	 0.715913	 0
1502159870.593	 0	 0.170598	 0.039776	 0.345995	 0.076972	 -0.335888	 1.529990	 -0.146766	 -0.088310	 0.677645	 0.715159	 0
1502159870.603	 0	 0.267375	 0.069256	 0.356088	 0.078752	 -0.333223	 1.533519	 -0.146275	 -0.087016	 0.678966	 0.714165	 0
1502159870.613	 0	 0.398380	 0.063832	 0.390056	 0.080633	 -0.329297	 1.536359	 -0.145408	 -0.085199	 0.680122	 0.713460	 0
1502159870.623	 0	 0.553895	 0.029835	 0.467066	 0.082397	 -0.323819	 1.540589	 -0.143903	 -0.082985	 0.681891	 0.712337	 0
1502159870.633	 0	 0.688220	 -0.045877	 0.577272	 0.083760	 -0.316804	 1.544949	 -0.141727	 -0.080383	 0.683838	 0.711205	 0
1502159870.643	 0	 0.718226	 -0.097789	 0.347706	 0.084188	 -0.309242	 1.549007	 -0.139060	 -0.077891	 0.685773	 0.710144	 0
1502159870.653	 0	 0.493663	 -0.402895	 -0.082401	 0.080985	 -0.303741	 1.547898	 -0.136075	 -0.077041	 0.685974	 0.710622	 0
1502159870.663	 0	 -0.024348	 -0.838090	 -0.228187	 0.073058	 -0.302765	 1.545567	 -0.133105	 -0.079363	 0.685743	 0.711151	 0
1502159870.673	 0	 -0.326209	 -1.394213	 -0.132608	 0.060041	 -0.305701	 1.543261	 -0.129770	 -0.084858	 0.685589	 0.711281	 0
1502159870.683	 0	 -0.195540	 -1.513647	 0.156362	 0.044934	 -0.308107	 1.544117	 -0.125398	 -0.091114	 0.686706	 0.710213	 0
1502159870.693	 0	 0.058633	 -0.702385	 0.672333	 0.037124	 -0.307980	 1.548965	 -0.122443	 -0.094139	 0.688917	 0.708190	 0
1502159870.703	 0	 0.394376	 0.152040	 1.256013	 0.040296	 -0.304510	 1.560503	 -0.121782	 -0.092518	 0.693008	 0.704517	 0
1502159870.713	 0	 0.769643	 0.513630	 1.765952	 0.049721	 -0.297005	 1.576659	 -0.121717	 -0.087563	 0.698561	 0.699660	 0
1502159870.723	 0	 1.100272	 0.741809	 2.171330	 0.062755	 -0.285684	 1.597765	 -0.121498	 -0.080301	 0.705815	 0.693261	 0
1502159870.733	 0	 1.585426	 0.596308	 2.343819	 0.075671	 -0.269616	 1.619943	 -0.119753	 -0.071427	 0.713677	 0.686453	 0
1502159870.743	 0	 2.261058	 0.244578	 2.372815	 0.084576	 -0.246903	 1.642628	 -0.114526	 -0.061481	 0.722274	 0.679278	 0
1502159870.753	 0	 2.754557	 0.569906	 2.417283	 0.094196	 -0.218292	 1.664113	 -0.107868	 -0.048931	 0.730650	 0.672396	 0
1502159870.763	 0	 2.653785	 0.895071	 2.339448	 0.107171	 -0.188690	 1.685494	 -0.102399	 -0.034740	 0.738730	 0.665268	 0
1502159870.773	 0	 1.624794	 -0.149947	 2.150217	 0.111946	 -0.167690	 1.704977	 -0.097002	 -0.026268	 0.746017	 0.658296	 0
1502159870.783	 0	 0.888549	 -1.290699	 1.664727	 0.104513	 -0.155171	 1.721884	 -0.089942	 -0.024767	 0.752504	 0.651943	 0
1502159870.793	 0	 0.114660	 -2.652129	 1.054740	 0.084369	 -0.150542	 1.733251	 -0.080692	 -0.030038	 0.757261	 0.647408	 0
1502159870.803	 0	 -0.317066	 -3.000324	 0.523022	 0.054885	 -0.152719	 1.739926	 -0.070085	 -0.040641	 0.760441	 0.644330	 0
1502159870.813	 0	 -0.475658	 -3.149529	 0.167577	 0.024324	 -0.157038	 1.741737	 -0.059797	 -0.052183	 0.761861	 0.642856	 0
1502159870.823	 0	 -0.314879	 -2.986450	 0.231003	 -0.005912	 -0.160807	 1.743790	 -0.049418	 -0.063382	 0.763225	 0.641110	 0
1502159870.833	 0	 0.078728	 -2.501063	 0.487068	 -0.031621	 -0.161155	 1.747343	 -0.039588	 -0.071821	 0.764925	 0.638874	 0
1502159870.843	 0	 0.467162	 -1.878356	 0.769301	 -0.050886	 -0.157705	 1.754638	 -0.030832	 -0.076769	 0.767671	 0.635478	 0
1502159870.853	 0	 0.699972	 -1.267422	 0.805718	 -0.063615	 -0.151655	 1.762581	 -0.023701	 -0.078593	 0.770486	 0.632145	 0
1502159870.863	 0	 0.808520	 -0.843772	 0.743728	 -0.071850	 -0.144352	 1.770855	 -0.017881	 -0.078468	 0.773311	 0.628895	 0
1502159870.873	 0	 0.920084	 -0.495688	 0.572961	 -0.076678	 -0.135909	 1.777146	 -0.013100	 -0.076777	 0.775453	 0.626579	 0
1502159870.883	 0	 1.002536	 -0.270308	 0.404645	 -0.079193	 -0.126431	 1.782373	 -0.008943	 -0.073929	 0.777227	 0.624794	 0
1502159870.893	 0	 1.025824	 -0.183873	 0.319953	 -0.080645	 -0.116451	 1.785957	 -0.005115	 -0.070528	 0.778461	 0.623693	 0
1502159870.903	 0	 0.941771	 -0.207934	 0.318472	 -0.082202	 -0.107054	 1.789911	 -0.001428	 -0.067373	 0.779781	 0.622411	 0
1502159870.913	 0	 0.730867	 -0.253154	 0.345182	 -0.084197	 -0.099430	 1.793379	 0.001848	 -0.065028	 0.780913	 0.621239	 0
1502159870.923	 0	 0.435452	 -0.260705	 0.399048	 -0.086452	 -0.094658	 1.797653	 0.004355	 -0.063862	 0.782263	 0.619648	 0
1502159870.933	 0	 0.183611	 -0.110345	 0.518868	 -0.087567	 -0.092678	 1.802156	 0.005551	 -0.063424	 0.783663	 0.617911	 0
1502159870.943	 0	 0.128498	 0.253449	 0.693569	 -0.085452	 -0.091977	 1.808753	 0.005146	 -0.062480	 0.785706	 0.615412	 0
1502159870.953	 0	 0.314835	 0.684023	 0.891920	 -0.078878	 -0.090106	 1.816825	 0.003383	 -0.059710	 0.788207	 0.612493	 0
1502159870.963	 0	 0.592654	 0.983215	 1.068884	 -0.068743	 -0.085651	 1.827480	 0.001051	 -0.054849	 0.791499	 0.608700	 0
1502159870.973	 0	 0.775401	 1.042095	 1.124297	 -0.057388	 -0.078997	 1.838635	 -0.001138	 -0.048771	 0.794927	 0.604736	 0
1502159870.983	 0	 0.837602	 1.054302	 1.010182	 -0.045970	 -0.071246	 1.849515	 -0.003096	 -0.042258	 0.798250	 0.600831	 0
1502159870.993	 0	 0.819125	 0.814526	 0.930808	 -0.036380	 -0.063379	 1.858842	 -0.004386	 -0.036261	 0.801083	 0.597434	 0
1502159871.003	 0	 0.797648	 0.387308	 0.813653	 -0.030877	 -0.055637	 1.867600	 -0.004136	 -0.031536	 0.803734	 0.594134	 0
1502159871.013	 0	 0.774328	 0.116650	 0.654152	 -0.028830	 -0.048021	 1.874223	 -0.002601	 -0.027878	 0.805739	 0.591604	 0
1502159871.023	 0	 0.706471	 0.114030	 0.568190	 -0.027561	 -0.040940	 1.880253	 -0.000942	 -0.024654	 0.807553	 0.589275	 0
1502159871.033	 0	 0.641310	 0.323376	 0.551990	 -0.024730	 -0.034553	 1.885417	 -0.000147	 -0.021242	 0.809095	 0.587290	 0
1502159871.043	 0	 0.670654	 0.574944	 0.565074	 -0.019386	 -0.028106	 1.891169	 -0.000366	 -0.017066	 0.810800	 0.585070	 0
1502159871.053	 0	 0.747120	 0.737394	 0.654731	 -0.012209	 -0.020928	 1.897021	 -0.001140	 -0.012060	 0.812525	 0.582796	 0
1502159871.063	 0	 0.837185	 0.948931	 0.736790	 -0.003189	 -0.012853	 1.904305	 -0.002428	 -0.006160	 0.814653	 0.579907	 0
1502159871.073	 0	 0.911916	 1.282824	 0.742339	 0.008693	 -0.003899	 1.911198	 -0.004675	 0.000916	 0.816645	 0.577117	 0
1502159871.083	 0	 1.005888	 1.997120	 0.689804	 0.026611	 0.006000	 1.918117	 -0.009170	 0.010097	 0.818597	 0.574202	 0
1502159871.093	 0	 1.134750	 2.829934	 0.526844	 0.052868	 0.017239	 1.922927	 -0.016742	 0.022192	 0.819843	 0.571909	 0
1502159871.103	 0	 1.229805	 3.328081	 0.261263	 0.085252	 0.029543	 1.925344	 -0.026538	 0.036455	 0.820245	 0.570228	 0
1502159871.113	 0	 1.146240	 1.711802	 0.135614	 0.107721	 0.041387	 1.925131	 -0.032364	 0.047712	 0.819931	 0.569549	 0
1502159871.123	 0	 1.001569	 0.253738	 0.125549	 0.114221	 0.051974	 1.925452	 -0.032012	 0.053889	 0.819984	 0.568941	 0
1502159871.133	 0	 0.797983	 -1.030056	 -0.074872	 0.106636	 0.060357	 1.923738	 -0.026460	 0.055185	 0.819643	 0.569593	 0
1502159871.143	 0	 0.579311	 -1.746294	 -0.288330	 0.090933	 0.066435	 1.920818	 -0.018207	 0.053224	 0.818992	 0.571037	 0
1502159871.153	 0	 0.368628	 -2.024743	 -0.492779	 0.071367	 0.070303	 1.915442	 -0.008952	 0.049240	 0.817578	 0.573636	 0
1502159871.163	 0	 0.131355	 -1.697409	 -0.556471	 0.053638	 0.071865	 1.909831	 -0.001129	 0.044794	 0.816001	 0.576308	 0
1502159871.173	 0	 -0.107051	 -1.285919	 -0.730668	 0.040410	 0.071123	 1.902703	 0.004198	 0.040665	 0.813937	 0.579510	 0
1502159871.183	 0	 -0.223625	 -0.667877	 -1.297474	 0.032740	 0.068597	 1.891299	 0.006800	 0.037377	 0.810620	 0.584336	 0
1502159871.193	 0	 -0.093081	 0.038247	 -1.688803	 0.032552	 0.066728	 1.874558	 0.006635	 0.036511	 0.805716	 0.591135	 0
1502159871.203	 0	 0.027563	 0.781452	 -1.524173	 0.039483	 0.066200	 1.858548	 0.003993	 0.038316	 0.800981	 0.597446	 0
1502159871.213	 0	 0.097214	 1.501873	 -1.104141	 0.053659	 0.066405	 1.845809	 -0.001351	 0.042641	 0.797169	 0.602244	 0
1502159871.223	 0	 0.232856	 1.768014	 -0.772818	 0.071575	 0.067835	 1.837203	 -0.007851	 0.048637	 0.794524	 0.605228	 0
1502159871.233	 0	 0.359458	 1.670942	 -0.568457	 0.089148	 0.070641	 1.830255	 -0.013789	 0.055113	 0.792318	 0.607455	 0
1502159871.243	 0	 0.442793	 1.239144	 -0.501000	 0.103275	 0.074390	 1.824767	 -0.018074	 0.060933	 0.790538	 0.609103	 0
1502159871.253	 0	 0.393478	 0.607182	 -0.539429	 0.111278	 0.077957	 1.818497	 -0.019943	 0.064838	 0.788554	 0.611210	 0
1502159871.263	 0	 0.267880	 0.218562	 -0.531159	 0.114711	 0.080300	 1.812829	 -0.020387	 0.066865	 0.786788	 0.613249	 0
1502159871.273	 0	 0.274365	 0.018372	 -0.517490	 0.115802	 0.082319	 1.806775	 -0.019987	 0.068052	 0.784921	 0.615520	 0
1502159871.283	 0	 0.370945	 -0.118305	 -0.474653	 0.115341	 0.085202	 1.801501	 -0.018732	 0.069087	 0.783304	 0.617501	 0
1502159871.293	 0	 0.434345	 -0.075218	 -0.405996	 0.114795	 0.088929	 1.796215	 -0.017174	 0.070418	 0.781678	 0.619454	 0
1502159871.303	 0	 0.375398	 -0.071416	 -0.330428	 0.114644	 0.092522	 1.792277	 -0.015853	 0.071801	 0.780459	 0.620866	 0
1502159871.313	 0	 -0.125970	 -0.704636	 -0.337352	 0.109180	 0.092135	 1.788486	 -0.013709	 0.069981	 0.779321	 0.622552	 0
1502159871.323	 0	 -0.275789	 -0.617306	 -0.586737	 0.103046	 0.089212	 1.783626	 -0.012072	 0.066966	 0.777848	 0.624755	 0
1502159871.333	 0	 -0.544350	 -0.477622	 -0.807097	 0.098563	 0.083727	 1.775892	 -0.011806	 0.063485	 0.775457	 0.628087	 0
1502159871.343	 0	 -0.716113	 -0.351071	 -0.958371	 0.095398	 0.076003	 1.767376	 -0.012763	 0.059560	 0.772795	 0.631723	 0
1502159871.353	 0	 -0.651580	 -0.165231	 -1.118083	 0.093957	 0.068186	 1.756651	 -0.014386	 0.056171	 0.769397	 0.636132	 0
1502159871.363	 0	 -0.400519	 0.059294	 -1.335648	 0.094763	 0.062316	 1.744413	 -0.016238	 0.054275	 0.765468	 0.640973	 0
1502159871.373	 0	 -0.081662	 0.412149	 -1.641016	 0.098839	 0.059136	 1.728365	 -0.018384	 0.054517	 0.760252	 0.647073	 0
1502159871.383	 0	 0.343114	 0.813707	 -1.852889	 0.106978	 0.059508	 1.709957	 -0.020829	 0.057485	 0.754188	 0.653804	 0
1502159871.393	 0	 0.783494	 0.533587	 -1.210607	 0.114634	 0.064707	 1.694200	 -0.021521	 0.062113	 0.748968	 0.659335	 0
1502159871.403	 0	 1.007017	 -0.263802	 0.070945	 0.114121	 0.074032	 1.690665	 -0.018126	 0.065456	 0.747863	 0.660368	 0
1502159871.413	 0	 0.983508	 -0.550595	 0.523294	 0.108641	 0.084610	 1.693803	 -0.012673	 0.067567	 0.748978	 0.659017	 0
1502159871.423	 0	 0.620288	 -0.538332	 0.176661	 0.103065	 0.092159	 1.695843	 -0.008154	 0.068537	 0.749686	 0.658183	 0
1502159871.433	 0	 0.119347	 -0.733728	 -0.070513	 0.096499	 0.094547	 1.694642	 -0.004863	 0.067270	 0.749310	 0.658774	 0
1502159871.443	 0	 -0.241116	 -1.264704	 -0.021380	 0.085305	 0.092891	 1.694407	 -0.001209	 0.062964	 0.749253	 0.659281	 0
1502159871.453	 0	 -0.493795	 -1.575447	 -0.070871	 0.070090	 0.088547	 1.693634	 0.003074	 0.056323	 0.749009	 0.660152	 0
1502159871.463	 0	 -0.660650	 -1.588391	 -0.173433	 0.054187	 0.082164	 1.692505	 0.006943	 0.048682	 0.748633	 0.661157	 0
1502159871.473	 0	 -0.623558	 -1.385754	 -0.159040	 0.039797	 0.075654	 1.690474	 0.010214	 0.041480	 0.747944	 0.662383	 0
1502159871.483	 0	 -0.425152	 -0.949751	 -0.053687	 0.029169	 0.070791	 1.689829	 0.012587	 0.036139	 0.747709	 0.662921	 0
1502159871.493	 0	 -0.180716	 -0.470782	 -0.061599	 0.023277	 0.068399	 1.688837	 0.014013	 0.033285	 0.747362	 0.663434	 0
1502159871.503	 0	 -0.098707	 -0.228384	 -0.144421	 0.020736	 0.067297	 1.687516	 0.014618	 0.032022	 0.746915	 0.663986	 0
1502159871.513	 0	 -0.129556	 -0.277596	 -0.089869	 0.018238	 0.066076	 1.685812	 0.015171	 0.030723	 0.746342	 0.664679	 0
1502159871.523	 0	 -0.202485	 -0.460292	 0.031275	 0.014148	 0.064239	 1.685828	 0.016086	 0.028679	 0.746332	 0.664760	 0
1502159871.533	 0	 -0.278190	 -0.674952	 0.095844	 0.007880	 0.061662	 1.686106	 0.017564	 0.025636	 0.746397	 0.664773	 0
1502159871.543	 0	 -0.322924	 -0.847821	 0.081286	 -0.000272	 0.058521	 1.686975	 0.019553	 0.021763	 0.746644	 0.664579	 0
1502159871.553	 0	 -0.324651	 -0.889382	 0.046148	 -0.009186	 0.055231	 1.686922	 0.021788	 0.017572	 0.746572	 0.664714	 0
1502159871.563	 0	 -0.277728	 -0.845348	 -0.026473	 -0.017772	 0.052313	 1.686812	 0.024024	 0.013627	 0.746473	 0.664841	 0
1502159871.573	 0	 -0.239517	 -0.783283	 -0.078895	 -0.025585	 0.050080	 1.685436	 0.026205	 0.010178	 0.745946	 0.665411	 0
1502159871.583	 0	 -0.231195	 -0.719308	 -0.124020	 -0.032762	 0.047889	 1.684237	 0.028158	 0.006956	 0.745480	 0.665895	 0
1502159871.593	 0	 -0.249861	 -0.605458	 -0.163092	 -0.038837	 0.045432	 1.681966	 0.029609	 0.003983	 0.744672	 0.666760	 0
1502159871.603	 0	 -0.275049	 -0.489556	 -0.169051	 -0.043749	 0.043073	 1.680162	 0.030654	 0.001439	 0.744032	 0.667438	 0
1502159871.613	 0	 -0.325622	 -0.413277	 -0.160028	 -0.047845	 0.040389	 1.677773	 0.031282	 -0.000965	 0.743212	 0.668322	 0
1502159871.623	 0	 -0.428789	 -0.278791	 -0.151557	 -0.051006	 0.036466	 1.676029	 0.031144	 -0.003508	 0.742640	 0.668956	 0
1502159871.633	 0	 -0.501280	 0.033776	 -0.085852	 -0.051491	 0.031612	 1.674080	 0.029697	 -0.005503	 0.742053	 0.669660	 0
1502159871.643	 0	 -0.405441	 0.331618	 0.021570	 -0.048895	 0.027239	 1.673791	 0.027270	 -0.006261	 0.742054	 0.669755	 0
1502159871.653	 0	 -0.189959	 0.584591	 0.124537	 -0.043666	 0.024708	 1.674064	 0.024483	 -0.005446	 0.742244	 0.669659	 0
1502159871.663	 0	 0.049976	 0.721643	 0.156456	 -0.036726	 0.024557	 1.675616	 0.021859	 -0.003162	 0.742846	 0.669097	 0
1502159871.673	 0	 0.223852	 0.734647	 0.107189	 -0.029397	 0.026385	 1.676257	 0.019748	 -0.000024	 0.743118	 0.668868	 0
1502159871.683	 0	 0.249747	 0.722073	 0.047500	 -0.022145	 0.028915	 1.676938	 0.017898	 0.003348	 0.743390	 0.668609	 0
1502159871.693	 0	 0.128202	 0.574205	 0.009917	 -0.015911	 0.030570	 1.676528	 0.016135	 0.006044	 0.743291	 0.668745	 0
1502159871.703	 0	 -0.070591	 0.351199	 -0.052431	 -0.011837	 0.030389	 1.676164	 0.014562	 0.007336	 0.743203	 0.668867	 0
1502159871.713	 0	 -0.280301	 0.167491	 -0.104300	 -0.009742	 0.028127	 1.674573	 0.013033	 0.007185	 0.742701	 0.669457	 0
1502159871.723	 0	 -0.496793	 0.175449	 -0.086384	 -0.008095	 0.023690	 1.673570	 0.010939	 0.006083	 0.742403	 0.669836	 0
1502159871.733	 0	 -0.626725	 0.288449	 -0.021308	 -0.005492	 0.017658	 1.672499	 0.007955	 0.004712	 0.742087	 0.670240	 0
1502159871.743	 0	 -0.630525	 0.355508	 0.028672	 -0.002081	 0.011305	 1.672633	 0.004560	 0.003498	 0.742163	 0.670194	 0
1502159871.753	 0	 -0.597168	 0.427076	 0.113087	 0.001995	 0.005234	 1.672894	 0.001013	 0.002611	 0.742266	 0.670099	 0
1502159871.763	 0	 -0.549884	 0.470009	 0.219087	 0.006632	 -0.000377	 1.674847	 -0.002590	 0.002080	 0.742916	 0.669376	 0
1502159871.773	 0	 -0.493379	 0.411849	 0.300942	 0.010950	 -0.005430	 1.677106	 -0.005887	 0.001641	 0.743653	 0.668538	 0
1502159871.783	 0	 -0.480306	 0.344842	 0.331234	 0.014567	 -0.010196	 1.680450	 -0.008827	 0.001063	 0.744739	 0.667296	 0
1502159871.793	 0	 -0.511878	 0.307341	 0.286271	 0.017812	 -0.015165	 1.682928	 -0.011693	 0.000281	 0.745523	 0.666376	 0
1502159871.803	 0	 -0.579792	 0.138574	 0.197758	 0.019709	 -0.020720	 1.685255	 -0.014249	 -0.001175	 0.746250	 0.665512	 0
1502159871.813	 0	 -0.701999	 -0.041242	 0.107891	 0.019755	 -0.027360	 1.686079	 -0.016474	 -0.003644	 0.746472	 0.665202	 0
1502159871.823	 0	 -0.811205	 -0.082515	 0.025041	 0.018933	 -0.035235	 1.686672	 -0.018783	 -0.006863	 0.746605	 0.664966	 0
1502159871.833	 0	 -0.845985	 0.037571	 0.013661	 0.018939	 -0.043664	 1.686350	 -0.021588	 -0.010005	 0.746410	 0.665061	 0
1502159871.843	 0	 -0.780986	 0.194613	 0.048725	 0.020536	 -0.051701	 1.686900	 -0.024852	 -0.012481	 0.746476	 0.664831	 0
1502159871.853	 0	 -0.639934	 0.304286	 0.064117	 0.023392	 -0.058471	 1.687107	 -0.028165	 -0.014062	 0.746413	 0.664738	 0
1502159871.863	 0	 -0.482331	 0.351272	 0.029585	 0.026837	 -0.063660	 1.687650	 -0.031170	 -0.014864	 0.746461	 0.664532	 0
1502159871.873	 0	 -0.395179	 0.415848	 -0.007582	 0.030781	 -0.067766	 1.687202	 -0.034008	 -0.015079	 0.746178	 0.664706	 0
1502159871.883	 0	 -0.406636	 0.542500	 0.001473	 0.035895	 -0.071890	 1.687298	 -0.037284	 -0.014921	 0.746042	 0.664686	 0
1502159871.893	 0	 -0.489795	 0.684572	 0.061374	 0.042318	 -0.076714	 1.687355	 -0.041280	 -0.014589	 0.745837	 0.664688	 0
1502159871.903	 0	 -0.604711	 0.787006	 0.124449	 0.049870	 -0.082658	 1.688715	 -0.046057	 -0.014331	 0.745990	 0.664208	 0
1502159871.913	 0	 -0.702973	 0.793712	 0.165543	 0.057797	 -0.089615	 1.690080	 -0.051308	 -0.014333	 0.746076	 0.663727	 0
1502159871.923	 0	 -0.749458	 0.712416	 0.184837	 0.064958	 -0.097064	 1.692322	 -0.056426	 -0.014804	 0.746421	 0.662912	 0
1502159871.933	 0	 -0.723359	 0.618895	 0.193920	 0.071003	 -0.104286	 1.694127	 -0.061052	 -0.015559	 0.746624	 0.662256	 0
1502159871.943	 0	 -0.669918	 0.407348	 0.208985	 0.075380	 -0.111053	 1.696615	 -0.064896	 -0.016725	 0.747092	 0.661334	 0
1502159871.953	 0	 -0.614207	 0.014758	 0.196975	 0.076233	 -0.117320	 1.698546	 -0.067258	 -0.018857	 0.747489	 0.660591	 0
1502159871.963	 0	 -0.582083	 -0.297038	 0.095728	 0.073674	 -0.123191	 1.700206	 -0.068213	 -0.021961	 0.747919	 0.659911	 0
1502159871.973	 0	 -0.601899	 -0.443049	 -0.063178	 0.069130	 -0.129103	 1.699835	 -0.068459	 -0.025668	 0.747742	 0.659952	 0
1502159871.983	 0	 -0.652062	 -0.521145	 -0.195795	 0.063655	 -0.135417	 1.698537	 -0.068504	 -0.029800	 0.747276	 0.660302	 0
1502159871.993	 0	 -0.751900	 -0.554889	 -0.235839	 0.057740	 -0.142540	 1.696103	 -0.068676	 -0.034340	 0.746418	 0.661033	 0
1502159872.003	 0	 -0.910318	 -0.465555	 -0.202922	 0.052344	 -0.151154	 1.694393	 -0.069530	 -0.039289	 0.745724	 0.661452	 0
1502159872.013	 0	 -1.052753	 -0.233407	 -0.114857	 0.049083	 -0.161276	 1.692958	 -0.071677	 -0.044103	 0.744984	 0.661753	 0
1502159872.023	 0	 -1.125339	 0.037602	 0.037647	 0.048899	 -0.172274	 1.693475	 -0.075218	 -0.048294	 0.744730	 0.661353	 0
1502159872.033	 0	 -1.138937	 0.234497	 0.210051	 0.051215	 -0.183465	 1.695276	 -0.079715	 -0.051782	 0.744770	 0.660516	 0
1502159872.043	 0	 -1.119492	 0.464666	 0.332254	 0.055942	 -0.194441	 1.698983	 -0.084978	 -0.054483	 0.745314	 0.659028	 0
1502159872.053	 0	 -1.064182	 0.622685	 0.391857	 0.062835	 -0.204998	 1.703042	 -0.090886	 -0.056348	 0.745848	 0.657476	 0
1502159872.063	 0	 -0.994287	 0.486872	 0.443086	 0.069288	 -0.214830	 1.708101	 -0.096351	 -0.058158	 0.746713	 0.655556	 0
1502159872.073	 0	 -0.905574	 0.226589	 0.506686	 0.073453	 -0.223765	 1.713348	 -0.100649	 -0.060414	 0.747752	 0.653519	 0
1502159872.083	 0	 -0.736313	 -0.006482	 0.644463	 0.075445	 -0.231169	 1.720123	 -0.103577	 -0.062903	 0.749453	 0.650873	 0
1502159872.093	 0	 -0.418655	 -0.189477	 0.913421	 0.076101	 -0.235578	 1.728915	 -0.104958	 -0.064816	 0.752024	 0.647490	 0
1502159872.103	 0	 -0.074520	 -0.315759	 0.872144	 0.075393	 -0.236461	 1.738243	 -0.104669	 -0.065868	 0.755022	 0.643932	 0
1502159872.113	 0	 0.140929	 -0.209710	 0.673013	 0.074560	 -0.234931	 1.745650	 -0.103624	 -0.065939	 0.757532	 0.641139	 0
1502159872.123	 0	 0.137920	 0.090661	 0.439712	 0.075738	 -0.232858	 1.750609	 -0.103252	 -0.065026	 0.759176	 0.639345	 0
1502159872.133	 0	 -0.099837	 0.416940	 0.234843	 0.079738	 -0.232920	 1.753551	 -0.104695	 -0.063925	 0.759905	 0.638355	 0
1502159872.143	 0	 -0.446425	 0.736022	 0.065709	 0.086670	 -0.236395	 1.754932	 -0.108381	 -0.063118	 0.759773	 0.637976	 0
1502159872.153	 0	 -0.785292	 0.948671	 -0.014190	 0.095860	 -0.243432	 1.755572	 -0.114065	 -0.062919	 0.759041	 0.637877	 0
1502159872.163	 0	 -0.957623	 1.064532	 -0.007131	 0.106484	 -0.252668	 1.756413	 -0.120969	 -0.063120	 0.758098	 0.637706	 0
1502159872.173	 0	 -0.942247	 0.968761	 0.028641	 0.116925	 -0.262115	 1.757732	 -0.127842	 -0.063497	 0.757236	 0.637352	 0
1502159872.183	 0	 -0.883459	 0.628401	 -0.033828	 0.124454	 -0.271046	 1.758757	 -0.133449	 -0.064590	 0.756445	 0.637033	 0
1502159872.193	 0	 -0.870050	 0.286670	 -0.209940	 0.127765	 -0.280032	 1.758175	 -0.137522	 -0.066942	 0.755382	 0.637185	 0
1502159872.203	 0	 -0.969389	 0.086801	 -0.389431	 0.128530	 -0.289861	 1.755848	 -0.140954	 -0.070301	 0.753852	 0.637884	 0
1502159872.213	 0	 -1.199449	 -0.054410	 -0.488658	 0.127654	 -0.301779	 1.752620	 -0.144459	 -0.074909	 0.751969	 0.638797	 0
1502159872.223	 0	 -1.400748	 -0.058042	 -0.520874	 0.126339	 -0.315937	 1.749176	 -0.148519	 -0.080481	 0.749846	 0.639684	 0
1502159872.233	 0	 -1.461245	 0.060761	 -0.492828	 0.125866	 -0.330968	 1.745937	 -0.153170	 -0.086114	 0.747619	 0.640460	 0
1502159872.243	 0	 -1.356552	 0.162713	 -0.439123	 0.126367	 -0.345370	 1.743029	 -0.157983	 -0.091201	 0.745434	 0.641132	 0
1502159872.253	 0	 -1.144511	 0.141942	 -0.393914	 0.126940	 -0.357806	 1.740363	 -0.162204	 -0.095521	 0.743454	 0.641749	 0
1502159872.263	 0	 -0.945829	 0.200929	 -0.323430	 0.127882	 -0.368082	 1.738051	 -0.165875	 -0.098921	 0.741720	 0.642301	 0
1502159872.273	 0	 -0.841977	 0.398701	 -0.200587	 0.130819	 -0.376896	 1.736744	 -0.169780	 -0.101201	 0.740251	 0.642621	 0
1502159872.283	 0	 -0.819749	 0.676810	 -0.046471	 0.136978	 -0.385162	 1.737018	 -0.174619	 -0.102371	 0.739037	 0.642536	 0
1502159872.293	 0	 -0.831560	 0.948266	 0.102120	 0.146567	 -0.393263	 1.739009	 -0.180574	 -0.102531	 0.738047	 0.642002	 0
1502159872.303	 0	 -0.852886	 1.111053	 0.125946	 0.158476	 -0.401444	 1.741834	 -0.187353	 -0.102067	 0.737045	 0.641284	 0
1502159872.313	 0	 -0.847313	 1.159057	 -0.008975	 0.170794	 -0.409791	 1.743677	 -0.194364	 -0.101456	 0.735603	 0.640950	 0
1502159872.323	 0	 -0.893571	 0.970228	 -0.151825	 0.181329	 -0.418629	 1.744065	 -0.200924	 -0.101468	 0.733749	 0.641050	 0
1502159872.333	 0	 -1.075559	 0.617415	 -0.223183	 0.188277	 -0.429044	 1.743844	 -0.206665	 -0.103164	 0.731833	 0.641145	 0
1502159872.343	 0	 -1.348257	 0.392769	 -0.192919	 0.192848	 -0.441981	 1.744288	 -0.212255	 -0.106645	 0.730045	 0.640788	 0
1502159872.353	 0	 -1.607246	 0.159697	 -0.113340	 0.196005	 -0.457416	 1.746122	 -0.217991	 -0.111674	 0.728511	 0.639750	 0
1502159872.363	 0	 -1.806622	 -0.684297	 0.105924	 0.193126	 -0.474656	 1.750529	 -0.221896	 -0.119605	 0.728192	 0.637332	 0
1502159872.373	 0	 -1.915951	 -0.679821	 0.251775	 0.188505	 -0.492818	 1.756983	 -0.225266	 -0.128674	 0.728559	 0.633956	 0
1502159872.383	 0	 -1.975104	 0.237786	 0.336553	 0.192082	 -0.511485	 1.764798	 -0.231614	 -0.135515	 0.728294	 0.630538	 0
1502159872.393	 0	 -1.917148	 1.082841	 0.291834	 0.205041	 -0.529905	 1.772717	 -0.241215	 -0.139374	 0.726869	 0.627735	 0
1502159872.403	 0	 -1.825538	 1.553249	 0.130088	 0.222827	 -0.547587	 1.779281	 -0.252359	 -0.141342	 0.724342	 0.625831	 0
1502159872.413	 0	 -1.769930	 1.998875	 -0.049955	 0.244274	 -0.564971	 1.784071	 -0.264771	 -0.141885	 0.720612	 0.624886	 0
1502159872.423	 0	 -1.714039	 2.220864	 -0.234461	 0.267805	 -0.582188	 1.787137	 -0.277898	 -0.141523	 0.715835	 0.624759	 0
1502159872.433	 0	 -1.599072	 2.184481	 -0.409029	 0.290555	 -0.598940	 1.788302	 -0.290634	 -0.140977	 0.710386	 0.625307	 0
1502159872.443	 0	 -1.387783	 1.705761	 -0.550247	 0.308712	 -0.614292	 1.787555	 -0.301382	 -0.141046	 0.705013	 0.626284	 0
1502159872.453	 0	 -1.197520	 1.055360	 -0.503738	 0.320136	 -0.627698	 1.786041	 -0.309205	 -0.142348	 0.700592	 0.627137	 0
1502159872.463	 0	 -1.200887	 0.415198	 -0.296936	 0.326242	 -0.640093	 1.786576	 -0.314702	 -0.145240	 0.697728	 0.626931	 0
1502159872.473	 0	 -1.367552	 -0.143095	 -0.159895	 0.327946	 -0.653168	 1.789735	 -0.318629	 -0.150187	 0.696218	 0.625460	 0
1502159872.483	 0	 -1.625428	 -0.309038	 -0.192877	 0.327622	 -0.668494	 1.793960	 -0.322344	 -0.156802	 0.694934	 0.623357	 0
1502159872.493	 0	 -1.838862	 -0.214765	 -0.270476	 0.327869	 -0.686319	 1.798289	 -0.326872	 -0.164216	 0.693102	 0.621126	 0
1502159872.503	 0	 -1.884169	 -0.092614	 -0.319363	 0.329301	 -0.705112	 1.802382	 -0.332030	 -0.171598	 0.690761	 0.618999	 0
1502159872.513	 0	 -1.819308	 -0.051657	 -0.340524	 0.331125	 -0.723610	 1.806056	 -0.337219	 -0.178686	 0.688205	 0.617032	 0
1502159872.523	 0	 -1.758592	 -0.053335	 -0.328387	 0.332970	 -0.741451	 1.809606	 -0.342195	 -0.185501	 0.685659	 0.615113	 0
1502159872.533	 0	 -1.744798	 -0.046840	 -0.322982	 0.334958	 -0.759011	 1.813280	 -0.347079	 -0.192193	 0.683110	 0.613154	 0
1502159872.543	 0	 -1.768377	 0.012638	 -0.380046	 0.337221	 -0.776847	 1.816634	 -0.352102	 -0.198854	 0.680295	 0.611294	 0
1502159872.553	 0	 -1.703413	 0.109022	 -0.514803	 0.339298	 -0.794710	 1.818363	 -0.357178	 -0.205295	 0.676942	 0.609941	 0
1502159872.563	 0	 -1.535946	 0.174209	 -0.644537	 0.340354	 -0.811687	 1.817600	 -0.361904	 -0.211256	 0.673128	 0.609341	 0
1502159872.573	 0	 -1.326432	 0.110816	 -0.698638	 0.339674	 -0.827031	 1.814822	 -0.365832	 -0.216743	 0.669298	 0.609286	 0
1502159872.583	 0	 -1.105286	 0.007028	 -0.670155	 0.337122	 -0.840261	 1.810959	 -0.368725	 -0.221784	 0.665883	 0.609470	 0
1502159872.593	 0	 -0.881822	 -0.003033	 -0.562883	 0.334229	 -0.851088	 1.807169	 -0.370904	 -0.226021	 0.663032	 0.609699	 0
1502159872.603	 0	 -0.587380	 0.075840	 -0.480136	 0.331876	 -0.859046	 1.803365	 -0.372556	 -0.229003	 0.660660	 0.610154	 0
1502159872.613	 0	 -0.124170	 0.145342	 -0.473341	 0.328940	 -0.862920	 1.797764	 -0.373205	 -0.230299	 0.658692	 0.611395	 0
1502159872.623	 0	 0.349139	 0.135045	 -0.473656	 0.324219	 -0.862220	 1.789648	 -0.372409	 -0.229972	 0.657232	 0.613572	 0
1502159872.633	 0	 0.670400	 0.009659	 -0.398499	 0.317839	 -0.857825	 1.780607	 -0.370227	 -0.228627	 0.656542	 0.616129	 0
1502159872.643	 0	 0.813959	 -0.157557	 -0.329589	 0.310117	 -0.851394	 1.771895	 -0.367023	 -0.227032	 0.656585	 0.618584	 0
1502159872.653	 0	 0.812683	 -0.318425	 -0.295797	 0.301249	 -0.844477	 1.763805	 -0.363218	 -0.225756	 0.657089	 0.620758	 0
1502159872.663	 0	 0.730307	 -0.445783	 -0.294719	 0.291478	 -0.838120	 1.756289	 -0.359172	 -0.225101	 0.657780	 0.622616	 0
1502159872.673	 0	 0.627493	 -0.533887	 -0.305685	 0.281075	 -0.832718	 1.749213	 -0.355102	 -0.225103	 0.658491	 0.624197	 0
1502159872.683	 0	 0.559178	 -0.516293	 -0.307236	 0.270836	 -0.828044	 1.742523	 -0.351221	 -0.225415	 0.659113	 0.625622	 0
1502159872.693	 0	 0.531725	 -0.381238	 -0.309006	 0.261862	 -0.823674	 1.736039	 -0.347803	 -0.225501	 0.659486	 0.627105	 0
1502159872.703	 0	 0.528650	 -0.237484	 -0.289273	 0.254653	 -0.819326	 1.729834	 -0.344930	 -0.225111	 0.659609	 0.628701	 0
1502159872.713	 0	 0.538164	 -0.262957	 -0.236712	 0.248155	 -0.814766	 1.724328	 -0.342143	 -0.224558	 0.659845	 0.630171	 0
1502159872.723	 0	 0.544718	 -0.336411	 -0.165791	 0.241658	 -0.809933	 1.719810	 -0.339158	 -0.224091	 0.660423	 0.631345	 0
1502159872.733	 0	 0.526408	 -0.348286	 -0.098471	 0.235704	 -0.805043	 1.716380	 -0.336203	 -0.223628	 0.661241	 0.632233	 0
1502159872.743	 0	 0.456154	 -0.397816	 -0.047360	 0.230351	 -0.800500	 1.714101	 -0.333406	 -0.223301	 0.662242	 0.632781	 0
1502159872.753	 0	 0.317197	 -0.496846	 -0.064916	 0.224375	 -0.797139	 1.712294	 -0.330676	 -0.223681	 0.663268	 0.633005	 0
1502159872.764	 0	 0.130165	 -0.552553	 -0.121439	 0.217629	 -0.795660	 1.710329	 -0.328237	 -0.224960	 0.664022	 0.633031	 0
1502159872.774	 0	 0.051554	 -0.598953	 -0.115310	 0.210659	 -0.795420	 1.708598	 -0.326049	 -0.226797	 0.664657	 0.632840	 0
1502159872.783	 0	 0.130404	 -0.680398	 0.013835	 0.204009	 -0.794565	 1.708249	 -0.323633	 -0.228536	 0.665777	 0.632276	 0
1502159872.794	 0	 0.281781	 -0.634583	 0.208156	 0.198918	 -0.791956	 1.710060	 -0.320980	 -0.229500	 0.667628	 0.631328	 0
1502159872.804	 0	 0.478607	 -0.389268	 0.462922	 0.197878	 -0.786886	 1.714715	 -0.318646	 -0.228750	 0.670147	 0.630112	 0
1502159872.814	 0	 0.690221	 -0.118284	 0.713398	 0.201811	 -0.779124	 1.722416	 -0.316873	 -0.225936	 0.673295	 0.628664	 0
1502159872.824	 0	 0.824939	 0.044573	 0.897527	 0.209271	 -0.769365	 1.732383	 -0.315499	 -0.221630	 0.676939	 0.626972	 0
1502159872.834	 0	 0.825616	 0.057381	 0.968064	 0.217800	 -0.759101	 1.743331	 -0.314293	 -0.216937	 0.680803	 0.625032	 0
1502159872.844	 0	 0.719765	 -0.034997	 0.922871	 0.225287	 -0.749723	 1.753993	 -0.313070	 -0.212828	 0.684581	 0.622928	 0
1502159872.854	 0	 0.612373	 -0.143380	 0.762229	 0.230457	 -0.741752	 1.763032	 -0.311665	 -0.209686	 0.687965	 0.620968	 0
1502159872.864	 0	 0.575185	 -0.205387	 0.559036	 0.232994	 -0.734700	 1.769481	 -0.309907	 -0.207284	 0.690788	 0.619518	 0
1502159872.874	 0	 0.649164	 -0.147249	 0.357102	 0.233739	 -0.727573	 1.772989	 -0.307827	 -0.204941	 0.692984	 0.618882	 0
1502159872.884	 0	 0.826110	 -0.051101	 0.209119	 0.233606	 -0.719269	 1.773814	 -0.305392	 -0.202012	 0.694677	 0.619153	 0
1502159872.894	 0	 1.018672	 0.047291	 0.147853	 0.233305	 -0.709337	 1.772953	 -0.302610	 -0.198265	 0.696135	 0.620092	 0
1502159872.904	 0	 1.202331	 0.172214	 0.144186	 0.233677	 -0.697746	 1.771280	 -0.299666	 -0.193565	 0.697496	 0.621475	 0
1502159872.914	 0	 1.353137	 0.231904	 0.192990	 0.234733	 -0.684538	 1.769513	 -0.296498	 -0.188032	 0.698968	 0.623037	 0
1502159872.924	 0	 1.503033	 0.253249	 0.259051	 0.236171	 -0.669788	 1.768045	 -0.292982	 -0.181840	 0.700698	 0.624594	 0
1502159872.934	 0	 1.650212	 0.225588	 0.279301	 0.237490	 -0.653529	 1.766508	 -0.288980	 -0.175105	 0.702629	 0.626211	 0
1502159872.944	 0	 1.720665	 0.017363	 0.299803	 0.237431	 -0.636209	 1.765035	 -0.284158	 -0.168404	 0.704899	 0.627703	 0
1502159872.954	 0	 1.750974	 -0.279602	 0.369619	 0.234877	 -0.618504	 1.764179	 -0.278263	 -0.162425	 0.707714	 0.628752	 0
1502159872.964	 0	 1.967575	 -0.822265	 0.596612	 0.228859	 -0.598895	 1.765108	 -0.270412	 -0.157054	 0.711772	 0.628960	 0
1502159872.974	 0	 2.290324	 -1.299136	 0.828256	 0.218674	 -0.575591	 1.768332	 -0.259782	 -0.151877	 0.717516	 0.628186	 0
1502159872.984	 0	 2.548705	 -1.400517	 0.870859	 0.206680	 -0.549368	 1.772185	 -0.247540	 -0.146191	 0.723894	 0.627160	 0
1502159872.994	 0	 2.687809	 -1.514485	 0.903162	 0.193912	 -0.521537	 1.776176	 -0.234464	 -0.140088	 0.730370	 0.626068	 0
1502159873.004	 0	 2.710583	 -1.365196	 0.847090	 0.181624	 -0.493155	 1.780238	 -0.221321	 -0.133564	 0.736605	 0.624972	 0
1502159873.014	 0	 2.453448	 -0.871816	 0.440369	 0.172069	 -0.467223	 1.781464	 -0.210032	 -0.126759	 0.741105	 0.624965	 0
1502159873.024	 0	 1.861792	 -0.278629	 -0.163427	 0.166157	 -0.447227	 1.777574	 -0.202118	 -0.120550	 0.742769	 0.626825	 0
1502159873.034	 0	 1.171261	 0.046504	 -0.698310	 0.162327	 -0.434956	 1.768877	 -0.197526	 -0.116191	 0.741765	 0.630291	 0
1502159873.044	 0	 0.663442	 -0.010483	 -1.030566	 0.157629	 -0.428813	 1.757066	 -0.194605	 -0.114178	 0.739150	 0.634625	 0
1502159873.054	 0	 0.338980	 -0.334557	 -1.225887	 0.149595	 -0.426541	 1.743530	 -0.191722	 -0.114567	 0.735854	 0.639246	 0
1502159873.064	 0	 0.145264	 -0.651235	 -1.350937	 0.137672	 -0.426601	 1.728821	 -0.188215	 -0.117018	 0.732261	 0.643952	 0
1502159873.074	 0	 0.028670	 -0.751132	 -1.368360	 0.124105	 -0.427821	 1.713812	 -0.184533	 -0.120460	 0.728553	 0.648574	 0
1502159873.084	 0	 -0.078359	 -0.718932	 -1.306030	 0.110759	 -0.429890	 1.699405	 -0.181219	 -0.124254	 0.724881	 0.652893	 0
1502159873.094	 0	 -0.121929	 -0.630890	 -1.202894	 0.098617	 -0.432336	 1.686047	 -0.178451	 -0.127931	 0.721362	 0.656830	 0
1502159873.104	 0	 -0.051833	 -0.506850	 -1.059643	 0.088188	 -0.434124	 1.674077	 -0.176048	 -0.130960	 0.718174	 0.660366	 0
1502159873.114	 0	 0.121273	 -0.328787	 -0.903152	 0.080014	 -0.434209	 1.663655	 -0.173833	 -0.132784	 0.715431	 0.663557	 0
1502159873.124	 0	 0.390698	 -0.029651	 -0.759394	 0.075148	 -0.431637	 1.654670	 -0.171852	 -0.132693	 0.713101	 0.666593	 0
1502159873.134	 0	 0.648746	 0.225753	 -0.640135	 0.073588	 -0.426261	 1.646866	 -0.170046	 -0.130604	 0.711114	 0.669585	 0
1502159873.144	 0	 0.815966	 0.388883	 -0.588435	 0.074165	 -0.418907	 1.639705	 -0.168286	 -0.127154	 0.709317	 0.672593	 0
1502159873.154	 0	 0.844851	 0.545644	 -0.581393	 0.076364	 -0.410877	 1.632664	 -0.166844	 -0.122936	 0.707463	 0.675682	 0
1502159873.164	 0	 0.729813	 0.723714	 -0.602044	 0.080341	 -0.403704	 1.625543	 -0.166291	 -0.118424	 0.705342	 0.678834	 0
1502159873.174	 0	 0.574890	 0.800301	 -0.623602	 0.085418	 -0.398102	 1.618303	 -0.166627	 -0.114091	 0.702939	 0.681979	 0
1502159873.184	 0	 0.427876	 0.785353	 -0.620151	 0.090549	 -0.394030	 1.611142	 -0.167462	 -0.110286	 0.700413	 0.684993	 0
1502159873.194	 0	 0.301421	 0.714109	 -0.608865	 0.095299	 -0.391299	 1.604236	 -0.168579	 -0.107104	 0.697878	 0.687805	 0
1502159873.204	 0	 0.194722	 0.566336	 -0.624966	 0.098736	 -0.389696	 1.597323	 -0.169601	 -0.104766	 0.695344	 0.690475	 0
1502159873.214	 0	 0.103537	 0.479406	 -0.618758	 0.101099	 -0.389058	 1.590491	 -0.170559	 -0.103142	 0.692835	 0.693001	 0
1502159873.224	 0	 0.001485	 0.421124	 -0.598820	 0.103007	 -0.389383	 1.583953	 -0.171665	 -0.102035	 0.690374	 0.695344	 0
1502159873.234	 0	 -0.144122	 0.347576	 -0.586566	 0.104300	 -0.391020	 1.577733	 -0.172986	 -0.101625	 0.687955	 0.697471	 0
1502159873.244	 0	 -0.327283	 0.308922	 -0.570404	 0.105194	 -0.394418	 1.571863	 -0.174754	 -0.101994	 0.685532	 0.699360	 0
1502159873.254	 0	 -0.475827	 0.325915	 -0.501848	 0.106368	 -0.399374	 1.566730	 -0.177117	 -0.102863	 0.683196	 0.700922	 0
1502159873.264	 0	 -0.539849	 0.447893	 -0.401111	 0.108897	 -0.405096	 1.562721	 -0.180150	 -0.103613	 0.681054	 0.702122	 0
1502159873.274	 0	 -0.558547	 0.647981	 -0.295066	 0.113733	 -0.410983	 1.559912	 -0.183961	 -0.103708	 0.679095	 0.703017	 0
1502159873.284	 0	 -0.533185	 0.805779	 -0.211044	 0.120747	 -0.416646	 1.558099	 -0.188377	 -0.103041	 0.677280	 0.703696	 0
1502159873.294	 0	 -0.423718	 0.816145	 -0.141970	 0.128531	 -0.421366	 1.557028	 -0.192683	 -0.101839	 0.675715	 0.704209	 0
1502159873.304	 0	 -0.272868	 0.773626	 -0.218969	 0.135713	 -0.424678	 1.555450	 -0.196321	 -0.100306	 0.674142	 0.704932	 0
1502159873.314	 0	 -0.176012	 0.759504	 -0.433312	 0.141730	 -0.427139	 1.551644	 -0.199378	 -0.098661	 0.671962	 0.706386	 0
1502159873.324	 0	 -0.161172	 0.883197	 -0.599493	 0.147710	 -0.429539	 1.545753	 -0.202494	 -0.096784	 0.669039	 0.708531	 0
1502159873.334	 0	 -0.155323	 1.012132	 -0.658796	 0.154834	 -0.432167	 1.538911	 -0.206101	 -0.094465	 0.665619	 0.711021	 0
1502159873.344	 0	 0.045019	 0.609964	 -0.575778	 0.159434	 -0.433110	 1.532395	 -0.208258	 -0.092476	 0.662725	 0.713353	 0
1502159873.354	 0	 0.026535	 -0.006896	 -0.353114	 0.159035	 -0.433323	 1.527635	 -0.208420	 -0.092196	 0.661046	 0.714898	 0
1502159873.364	 0	 -0.169442	 -1.011728	 0.058257	 0.151199	 -0.434365	 1.527564	 -0.206192	 -0.095346	 0.661727	 0.714501	 0
1502159873.374	 0	 -0.513021	 -1.292281	 0.040187	 0.139172	 -0.438541	 1.528965	 -0.203585	 -0.101212	 0.663040	 0.713223	 0
1502159873.384	 0	 -0.610603	 -1.234390	 -0.167054	 0.126388	 -0.444700	 1.528617	 -0.201496	 -0.107841	 0.663601	 0.712323	 0
1502159873.394	 0	 -0.474394	 -0.910625	 -0.332227	 0.115170	 -0.450214	 1.526035	 -0.199831	 -0.113459	 0.663268	 0.712229	 0
1502159873.404	 0	 -0.220281	 -0.425181	 -0.372194	 0.107996	 -0.453492	 1.522308	 -0.198807	 -0.116759	 0.662337	 0.712848	 0
1502159873.414	 0	 0.062101	 0.090301	 -0.334036	 0.105956	 -0.453930	 1.518493	 -0.198508	 -0.117257	 0.661137	 0.713963	 0
1502159873.424	 0	 0.294924	 0.526579	 -0.306554	 0.108518	 -0.451829	 1.514739	 -0.198839	 -0.115256	 0.659742	 0.715485	 0
1502159873.434	 0	 0.387252	 0.924535	 -0.273352	 0.115232	 -0.448430	 1.511159	 -0.200065	 -0.111344	 0.658118	 0.717257	 0
1502159873.444	 0	 0.369083	 1.271599	 -0.250238	 0.125743	 -0.444983	 1.507849	 -0.202493	 -0.106070	 0.656206	 0.719124	 0
1502159873.454	 0	 0.289664	 1.390281	 -0.289688	 0.138022	 -0.442227	 1.504366	 -0.205729	 -0.100361	 0.653970	 0.721059	 0
1502159873.464	 0	 0.161559	 1.295613	 -0.363883	 0.149586	 -0.440794	 1.500259	 -0.209202	 -0.095277	 0.651432	 0.723045	 0
1502159873.474	 0	 0.018327	 1.044235	 -0.411874	 0.158783	 -0.440858	 1.495761	 -0.212425	 -0.091495	 0.648827	 0.724933	 0
1502159873.484	 0	 -0.076071	 0.742104	 -0.339585	 0.165202	 -0.442109	 1.491765	 -0.215123	 -0.089160	 0.646562	 0.726450	 0
1502159873.494	 0	 -0.039599	 0.417521	 -0.178719	 0.169301	 -0.442994	 1.489513	 -0.216856	 -0.087725	 0.645209	 0.727312	 0
1502159873.504	 0	 0.019427	 -0.387220	 -0.134530	 0.167447	 -0.443061	 1.488049	 -0.216346	 -0.088263	 0.644871	 0.727699	 0
1502159873.514	 0	 -0.034575	 -0.800853	 -0.136426	 0.159606	 -0.443649	 1.486597	 -0.214090	 -0.091158	 0.645125	 0.727784	 0
1502159873.524	 0	 0.098350	 -1.142814	 -0.077583	 0.148753	 -0.443242	 1.485467	 -0.210496	 -0.094850	 0.645907	 0.727666	 0
1502159873.534	 0	 0.253151	 -1.565564	 -0.034328	 0.133745	 -0.441162	 1.484676	 -0.204947	 -0.099531	 0.647385	 0.727312	 0
1502159873.544	 0	 0.334574	 -1.486149	 0.008630	 0.117991	 -0.438009	 1.484231	 -0.198746	 -0.104159	 0.649117	 0.726841	 0
1502159873.554	 0	 0.425172	 -0.670706	 0.109684	 0.109240	 -0.433936	 1.484678	 -0.194433	 -0.106023	 0.650519	 0.726484	 0
1502159873.564	 0	 0.341238	 -0.026989	 0.139782	 0.108299	 -0.430003	 1.485810	 -0.192670	 -0.105160	 0.651383	 0.726306	 0
1502159873.574	 0	 -0.098315	 -0.239010	 0.028880	 0.107244	 -0.429506	 1.486466	 -0.192115	 -0.105440	 0.651768	 0.726066	 0
1502159873.584	 0	 -0.673495	 -0.787544	 -0.043002	 0.100782	 -0.434862	 1.486734	 -0.191898	 -0.109600	 0.651998	 0.725301	 0
1502159873.594	 0	 -1.012893	 -1.018009	 -0.113652	 0.091009	 -0.444347	 1.486709	 -0.192083	 -0.116304	 0.652064	 0.724147	 0
1502159873.604	 0	 -1.163716	 -1.061726	 -0.180700	 0.080052	 -0.455818	 1.485936	 -0.192634	 -0.124014	 0.651797	 0.722961	 0
1502159873.614	 0	 -1.192180	 -0.927731	 -0.196378	 0.069800	 -0.467872	 1.484769	 -0.193652	 -0.131607	 0.651272	 0.721819	 0
1502159873.624	 0	 -1.126590	 -0.665237	 -0.201302	 0.061762	 -0.479476	 1.483359	 -0.195256	 -0.138211	 0.650489	 0.720859	 0
1502159873.634	 0	 -0.952994	 -0.301839	 -0.177094	 0.057131	 -0.489597	 1.481959	 -0.197447	 -0.143085	 0.649512	 0.720191	 0
1502159873.644	 0	 -0.725399	 0.125882	 -0.162445	 0.056648	 -0.497497	 1.480582	 -0.200197	 -0.145726	 0.648333	 0.719965	 0
1502159873.654	 0	 -0.497634	 0.508875	 -0.124088	 0.060286	 -0.503089	 1.479400	 -0.203448	 -0.146138	 0.647015	 0.720156	 0
1502159873.664	 0	 -0.346985	 0.746426	 -0.038558	 0.067047	 -0.506955	 1.478980	 -0.207035	 -0.144931	 0.645801	 0.720467	 0
1502159873.674	 0	 -0.185719	 0.832834	 0.016617	 0.075416	 -0.509196	 1.479196	 -0.210514	 -0.142676	 0.644787	 0.720817	 0
1502159873.684	 0	 -0.103883	 0.663030	 0.064844	 0.083009	 -0.510328	 1.479905	 -0.213311	 -0.140387	 0.644126	 0.721036	 0
1502159873.694	 0	 -0.109875	 0.223119	 0.092220	 0.087006	 -0.511321	 1.481046	 -0.214869	 -0.139397	 0.644010	 0.720868	 0
1502159873.704	 0	 -0.159845	 -0.277809	 0.014758	 0.085712	 -0.512730	 1.481648	 -0.214907	 -0.140392	 0.644223	 0.720473	 0
1502159873.714	 0	 -0.209202	 -0.503961	 -0.093734	 0.080716	 -0.514775	 1.481047	 -0.214063	 -0.142802	 0.644337	 0.720149	 0
1502159873.724	 0	 -0.181740	 -0.453695	 -0.106602	 0.075365	 -0.516810	 1.479919	 -0.213139	 -0.145278	 0.644300	 0.719961	 0
1502159873.734	 0	 -0.061952	 -0.245136	 0.009874	 0.072234	 -0.517778	 1.479725	 -0.212486	 -0.146704	 0.644467	 0.719715	 0
1502159873.744	 0	 0.070622	 -0.046073	 0.142508	 0.071952	 -0.517304	 1.480954	 -0.212138	 -0.146780	 0.644986	 0.719338	 0
1502159873.754	 0	 0.147891	 0.002424	 0.203745	 0.073107	 -0.515725	 1.483171	 -0.211790	 -0.146079	 0.645817	 0.718837	 0
1502159873.764	 0	 0.142016	 -0.057254	 0.163303	 0.073659	 -0.514053	 1.485068	 -0.211240	 -0.145530	 0.646606	 0.718401	 0
1502159873.774	 0	 0.140749	 -0.022091	 0.155664	 0.074151	 -0.512370	 1.486767	 -0.210682	 -0.144976	 0.647330	 0.718024	 0
1502159873.784	 0	 0.133750	 0.067317	 0.172380	 0.075488	 -0.510719	 1.488571	 -0.210403	 -0.144140	 0.648000	 0.717670	 0
1502159873.794	 0	 0.109174	 0.057525	 0.205430	 0.077397	 -0.509363	 1.490773	 -0.210386	 -0.143238	 0.648724	 0.717202	 0
1502159873.804	 0	 0.047790	 -0.188960	 0.200690	 0.077338	 -0.508615	 1.493068	 -0.209939	 -0.143251	 0.649627	 0.716512	 0
1502159873.814	 0	 -0.030481	 -0.439835	 0.162711	 0.074318	 -0.508580	 1.494966	 -0.208809	 -0.144520	 0.650626	 0.715681	 0
1502159873.824	 0	 -0.087022	 -0.586163	 0.128725	 0.069093	 -0.509038	 1.496358	 -0.207167	 -0.146685	 0.651622	 0.714810	 0
1502159873.834	 0	 -0.058347	 -0.870308	 0.050879	 0.061108	 -0.509225	 1.496973	 -0.204584	 -0.149663	 0.652646	 0.714003	 0
1502159873.844	 0	 0.015621	 -1.060377	 -0.035624	 0.050372	 -0.508675	 1.496692	 -0.200905	 -0.153283	 0.653686	 0.713327	 0
1502159873.854	 0	 -0.010762	 -0.737850	 -0.056316	 0.042125	 -0.508232	 1.496289	 -0.198083	 -0.156037	 0.654406	 0.712859	 0
1502159873.864	 0	 -0.109825	 -0.391387	 -0.060426	 0.037552	 -0.508797	 1.495845	 -0.196821	 -0.157809	 0.654648	 0.712597	 0
1502159873.874	 0	 -0.225576	 -0.274015	 -0.080844	 0.034609	 -0.510718	 1.495227	 -0.196585	 -0.159432	 0.654540	 0.712399	 0
1502159873.884	 0	 -0.332729	 -0.329127	 -0.122984	 0.031391	 -0.513854	 1.494265	 -0.196717	 -0.161520	 0.654226	 0.712181	 0
1502159873.894	 0	 -0.419907	 -0.517210	 -0.164478	 0.026396	 -0.517901	 1.492845	 -0.196630	 -0.164492	 0.653840	 0.711879	 0
1502159873.904	 0	 -0.429406	 -0.694073	 -0.188433	 0.019144	 -0.522253	 1.491000	 -0.195954	 -0.168324	 0.653498	 0.711484	 0
1502159873.914	 0	 -0.376627	 -0.777846	 -0.194194	 0.010622	 -0.526127	 1.488912	 -0.194720	 -0.172422	 0.653237	 0.711081	 0
1502159873.924	 0	 -0.350502	 -0.877767	 -0.179737	 0.001048	 -0.529776	 1.486790	 -0.193074	 -0.176813	 0.653085	 0.710591	 0
1502159873.934	 0	 -0.360018	 -0.906602	 -0.155080	 -0.009351	 -0.533621	 1.484721	 -0.191231	 -0.181561	 0.653010	 0.709961	 0
1502159873.944	 0	 -0.388377	 -0.815226	 -0.131013	 -0.019067	 -0.537650	 1.482860	 -0.189664	 -0.186140	 0.652925	 0.709273	 0
1502159873.954	 0	 -0.428982	 -0.629104	 -0.127726	 -0.026862	 -0.541810	 1.481184	 -0.188760	 -0.190094	 0.652711	 0.708662	 0
1502159873.964	 0	 -0.409814	 -0.445771	 -0.132616	 -0.032385	 -0.545715	 1.479615	 -0.188503	 -0.193165	 0.652343	 0.708239	 0
1502159873.974	 0	 -0.376469	 -0.309229	 -0.140436	 -0.036236	 -0.549091	 1.478103	 -0.188600	 -0.195475	 0.651884	 0.708002	 0
1502159873.984	 0	 -0.390194	 -0.144246	 -0.155077	 -0.038623	 -0.552456	 1.476430	 -0.189189	 -0.197245	 0.651232	 0.707954	 0
1502159873.994	 0	 -0.447805	 0.049172	 -0.167958	 -0.039237	 -0.556424	 1.474548	 -0.190595	 -0.198559	 0.650286	 0.708079	 0
1502159874.004	 0	 -0.503990	 0.193603	 -0.195608	 -0.038444	 -0.561013	 1.472375	 -0.192710	 -0.199543	 0.649047	 0.708366	 0
1502159874.014	 0	 -0.527974	 0.309530	 -0.237926	 -0.036713	 -0.565858	 1.469701	 -0.195272	 -0.200222	 0.647513	 0.708878	 0
1502159874.024	 0	 -0.528468	 0.411778	 -0.268282	 -0.034156	 -0.570766	 1.466620	 -0.198164	 -0.200581	 0.645739	 0.709591	 0
1502159874.034	 0	 -0.515087	 0.504524	 -0.285679	 -0.030869	 -0.575684	 1.463269	 -0.201321	 -0.200648	 0.643784	 0.710459	 0
1502159874.044	 0	 -0.497754	 0.639916	 -0.292528	 -0.026662	 -0.580562	 1.459715	 -0.204776	 -0.200344	 0.641655	 0.711482	 0
1502159874.054	 0	 -0.496829	 0.835895	 -0.286884	 -0.020925	 -0.585510	 1.456041	 -0.208754	 -0.199494	 0.639302	 0.712683	 0
1502159874.064	 0	 -0.479179	 1.072462	 -0.258837	 -0.012848	 -0.590354	 1.452587	 -0.213409	 -0.197785	 0.636765	 0.714050	 0
1502159874.074	 0	 -0.470732	 1.267426	 -0.264906	 -0.002663	 -0.595038	 1.449260	 -0.218650	 -0.195269	 0.634028	 0.715591	 0
1502159874.084	 0	 -0.469480	 1.409085	 -0.257974	 0.009211	 -0.599741	 1.446024	 -0.224402	 -0.192147	 0.631093	 0.717248	 0
1502159874.094	 0	 -0.449631	 1.453992	 -0.231300	 0.021880	 -0.604198	 1.443075	 -0.230265	 -0.188674	 0.628145	 0.718898	 0
1502159874.104	 0	 -0.469595	 1.332403	 -0.119705	 0.034423	 -0.608706	 1.441226	 -0.235978	 -0.185373	 0.625551	 0.720165	 0
1502159874.114	 0	 -0.458374	 1.180162	 -0.030260	 0.046097	 -0.613229	 1.440847	 -0.241270	 -0.182555	 0.623540	 0.720874	 0
1502159874.124	 0	 -0.407361	 1.201844	 -0.025760	 0.057813	 -0.617246	 1.440655	 -0.246362	 -0.179581	 0.621604	 0.721571	 0
1502159874.134	 0	 -0.395364	 1.139065	 0.005583	 0.069444	 -0.621058	 1.440810	 -0.251309	 -0.176613	 0.619787	 0.722160	 0
1502159874.144	 0	 -0.416780	 0.958905	 0.035046	 0.079822	 -0.625035	 1.441465	 -0.255871	 -0.174213	 0.618253	 0.722457	 0
1502159874.154	 0	 -0.432550	 0.736192	 0.048668	 0.088334	 -0.629265	 1.442459	 -0.259905	 -0.172614	 0.617020	 0.722454	 0
1502159874.164	 0	 -0.420665	 0.510484	 0.081721	 0.094795	 -0.633447	 1.443849	 -0.263248	 -0.171796	 0.616181	 0.722155	 0
1502159874.174	 0	 -0.381733	 0.390431	 0.119863	 0.100040	 -0.637265	 1.445715	 -0.266043	 -0.171369	 0.615700	 0.721642	 0
1502159874.184	 0	 -0.339895	 0.384367	 0.061314	 0.104733	 -0.640641	 1.447178	 -0.268543	 -0.170952	 0.615189	 0.721251	 0
1502159874.194	 0	 -0.317170	 0.374962	 -0.009101	 0.108850	 -0.643850	 1.447689	 -0.270887	 -0.170563	 0.614422	 0.721120	 0
1502159874.204	 0	 -0.278368	 0.318810	 -0.032174	 0.112223	 -0.646777	 1.447708	 -0.272942	 -0.170286	 0.613606	 0.721105	 0
1502159874.214	 0	 -0.226885	 0.241436	 0.004808	 0.114771	 -0.649213	 1.447857	 -0.274560	 -0.170168	 0.613005	 0.721030	 0
1502159874.224	 0	 -0.182732	 0.154429	 0.022532	 0.116711	 -0.651034	 1.448309	 -0.275750	 -0.170114	 0.612672	 0.720872	 0
1502159874.234	 0	 -0.167434	 0.100230	 0.010004	 0.118095	 -0.652512	 1.448741	 -0.276651	 -0.170148	 0.612449	 0.720708	 0
1502159874.244	 0	 -0.156249	 0.026830	 -0.011028	 0.118644	 -0.653856	 1.448891	 -0.277274	 -0.170402	 0.612256	 0.720572	 0
1502159874.254	 0	 -0.148297	 -0.051909	 -0.018157	 0.118151	 -0.655078	 1.448784	 -0.277558	 -0.170956	 0.612130	 0.720439	 0
1502159874.264	 0	 -0.147902	 -0.121135	 -0.012533	 0.116860	 -0.656299	 1.448647	 -0.277599	 -0.171793	 0.612105	 0.720246	 0
1502159874.274	 0	 -0.157149	 -0.186150	 -0.005918	 0.115191	 -0.657829	 1.448760	 -0.277610	 -0.172899	 0.612183	 0.719911	 0
1502159874.284	 0	 -0.183561	 -0.227886	 -0.001633	 0.113249	 -0.659777	 1.449061	 -0.277666	 -0.174263	 0.612313	 0.719449	 0
1502159874.294	 0	 -0.234686	 -0.222937	 -0.019075	 0.111189	 -0.662164	 1.449280	 -0.277846	 -0.175798	 0.612374	 0.718954	 0
1502159874.304	 0	 -0.272136	 -0.188067	 -0.035482	 0.109217	 -0.664975	 1.449286	 -0.278218	 -0.177405	 0.612292	 0.718484	 0
1502159874.314	 0	 -0.269399	 -0.132694	 0.000684	 0.107850	 -0.667793	 1.449482	 -0.278762	 -0.178824	 0.612194	 0.718006	 0
1502159874.324	 0	 -0.230067	 -0.117489	 0.004069	 0.106762	 -0.670165	 1.449819	 -0.279222	 -0.180018	 0.612164	 0.717554	 0
1502159874.334	 0	 -0.219719	 -0.046029	 -0.029311	 0.105949	 -0.672292	 1.449763	 -0.279716	 -0.180981	 0.611986	 0.717271	 0
1502159874.344	 0	 -0.227612	 0.027401	 -0.031789	 0.105941	 -0.674484	 1.449592	 -0.280490	 -0.181660	 0.611645	 0.717088	 0
1502159874.354	 0	 -0.227698	 0.025249	 -0.003970	 0.106366	 -0.676687	 1.449766	 -0.281368	 -0.182234	 0.611364	 0.716838	 0
1502159874.364	 0	 -0.223217	 -0.025845	 0.018721	 0.106506	 -0.678917	 1.450213	 -0.282143	 -0.182958	 0.611217	 0.716474	 0
1502159874.374	 0	 -0.242212	 -0.069664	 0.038033	 0.106306	 -0.681345	 1.450917	 -0.282858	 -0.183904	 0.611184	 0.715978	 0
1502159874.384	 0	 -0.282589	 -0.095529	 0.045379	 0.106012	 -0.684136	 1.451881	 -0.283645	 -0.185035	 0.611209	 0.715353	 0
1502159874.394	 0	 -0.323949	 -0.115007	 0.022747	 0.105487	 -0.687300	 1.452728	 -0.284500	 -0.186352	 0.611175	 0.714701	 0
1502159874.404	 0	 -0.356688	 -0.133348	 -0.025508	 0.104313	 -0.690777	 1.452993	 -0.285317	 -0.187918	 0.610983	 0.714129	 0
1502159874.414	 0	 -0.396987	 -0.136817	 -0.074939	 0.102304	 -0.694698	 1.452373	 -0.286116	 -0.189795	 0.610536	 0.713695	 0
1502159874.424	 0	 -0.428558	 -0.184975	 -0.103817	 0.099797	 -0.698992	 1.451441	 -0.286923	 -0.191921	 0.610000	 0.713260	 0
1502159874.434	 0	 -0.421354	 -0.309542	 -0.116111	 0.096262	 -0.703234	 1.450392	 -0.287412	 -0.194378	 0.609578	 0.712759	 0
1502159874.444	 0	 -0.412356	 -0.391484	 -0.110385	 0.091945	 -0.707200	 1.449443	 -0.287559	 -0.197036	 0.609342	 0.712172	 0
1502159874.454	 0	 -0.429195	 -0.426760	 -0.110345	 0.087317	 -0.711283	 1.448628	 -0.287641	 -0.199858	 0.609184	 0.711487	 0
1502159874.464	 0	 -0.440665	 -0.466252	 -0.114536	 0.082271	 -0.715546	 1.447717	 -0.287670	 -0.202866	 0.609029	 0.710756	 0
1502159874.474	 0	 -0.451334	 -0.475887	 -0.103873	 0.076916	 -0.719936	 1.446791	 -0.287653	 -0.206018	 0.608900	 0.709967	 0
1502159874.484	 0	 -0.466309	 -0.464283	 -0.108287	 0.071578	 -0.724538	 1.445812	 -0.287722	 -0.209217	 0.608723	 0.709155	 0
1502159874.494	 0	 -0.487507	 -0.464462	 -0.133009	 0.066112	 -0.729403	 1.444580	 -0.287874	 -0.212502	 0.608442	 0.708357	 0
1502159874.504	 0	 -0.506713	 -0.449691	 -0.150296	 0.060675	 -0.734515	 1.443126	 -0.288147	 -0.215815	 0.608049	 0.707581	 0
1502159874.514	 0	 -0.494097	 -0.427225	 -0.141755	 0.055369	 -0.739560	 1.441619	 -0.288448	 -0.219047	 0.607630	 0.706825	 0
1502159874.524	 0	 -0.473063	 -0.395121	 -0.119295	 0.050579	 -0.744357	 1.440382	 -0.288793	 -0.222052	 0.607267	 0.706059	 0
1502159874.534	 0	 -0.459418	 -0.365219	 -0.107562	 0.046243	 -0.748942	 1.439320	 -0.289187	 -0.224850	 0.606928	 0.705302	 0
1502159874.544	 0	 -0.448014	 -0.318273	 -0.098054	 0.042278	 -0.753437	 1.438290	 -0.289661	 -0.227490	 0.606561	 0.704577	 0
1502159874.554	 0	 -0.422905	 -0.245650	 -0.091775	 0.039003	 -0.757746	 1.437301	 -0.290277	 -0.229831	 0.606134	 0.703931	 0
1502159874.564	 0	 -0.403966	 -0.208233	 -0.086462	 0.036109	 -0.761928	 1.436261	 -0.290972	 -0.231986	 0.605651	 0.703352	 0
1502159874.574	 0	 -0.380603	 -0.212314	 -0.060638	 0.033334	 -0.765877	 1.435413	 -0.291603	 -0.234053	 0.605249	 0.702752	 0
1502159874.584	 0	 -0.340128	 -0.237581	 -0.015372	 0.030897	 -0.769382	 1.435204	 -0.292107	 -0.235955	 0.605080	 0.702052	 0
1502159874.594	 0	 -0.299539	 -0.269244	 0.012808	 0.028496	 -0.772442	 1.435469	 -0.292411	 -0.237775	 0.605130	 0.701268	 0
1502159874.604	 0	 -0.228847	 -0.373104	 0.083166	 0.025816	 -0.774859	 1.436416	 -0.292326	 -0.239593	 0.605542	 0.700328	 0
1502159874.614	 0	 -0.094676	 -0.621317	 0.216508	 0.022085	 -0.776016	 1.439068	 -0.291277	 -0.241640	 0.606865	 0.698915	 0
1502159874.624	 0	 0.009199	 -0.728116	 0.256061	 0.017417	 -0.775991	 1.442599	 -0.289422	 -0.243774	 0.608779	 0.697279	 0
1502159874.634	 0	 0.056769	 -0.647909	 0.239993	 0.012986	 -0.775358	 1.446007	 -0.287434	 -0.245615	 0.610685	 0.695786	 0
1502159874.644	 0	 0.044007	 -0.448832	 0.199553	 0.009918	 -0.774709	 1.448881	 -0.285918	 -0.246893	 0.612207	 0.694620	 0
1502159874.654	 0	 0.019640	 -0.270068	 0.158053	 0.008333	 -0.774279	 1.451178	 -0.285000	 -0.247639	 0.613285	 0.693781	 0
1502159874.664	 0	 0.017957	 -0.131613	 0.104016	 0.007874	 -0.773914	 1.452842	 -0.284527	 -0.247923	 0.613973	 0.693264	 0
1502159874.674	 0	 0.031658	 -0.054804	 0.025716	 0.007706	 -0.773468	 1.453535	 -0.284235	 -0.247942	 0.614294	 0.693093	 0
1502159874.684	 0	 0.050960	 -0.013103	 -0.066314	 0.007118	 -0.772816	 1.452983	 -0.283897	 -0.247867	 0.614269	 0.693281	 0
1502159874.694	 0	 0.065950	 0.047743	 -0.175560	 0.006273	 -0.771908	 1.451112	 -0.283555	 -0.247614	 0.613854	 0.693878	 0
1502159874.704	 0	 0.062527	 0.147852	 -0.270098	 0.005719	 -0.770859	 1.448099	 -0.283395	 -0.247057	 0.613018	 0.694880	 0
1502159874.714	 0	 0.033437	 0.257353	 -0.357341	 0.005366	 -0.770135	 1.443825	 -0.283562	 -0.246352	 0.611673	 0.696246	 0
1502159874.724	 0	 -0.023057	 0.311264	 -0.438111	 0.004561	 -0.770101	 1.438160	 -0.284002	 -0.245818	 0.609817	 0.697882	 0
1502159874.734	 0	 -0.092425	 0.362938	 -0.493280	 0.003468	 -0.770905	 1.431520	 -0.284766	 -0.245501	 0.607552	 0.699655	 0
1502159874.744	 0	 -0.192791	 0.393072	 -0.495074	 0.002441	 -0.772754	 1.424533	 -0.285958	 -0.245425	 0.605023	 0.701385	 0
1502159874.754	 0	 -0.300609	 0.403996	 -0.474380	 0.001561	 -0.775676	 1.417673	 -0.287560	 -0.245634	 0.602380	 0.702931	 0
1502159874.764	 0	 -0.378525	 0.415125	 -0.464198	 0.000737	 -0.779453	 1.410886	 -0.289475	 -0.246080	 0.599645	 0.704325	 0
1502159874.774	 0	 -0.438155	 0.408278	 -0.466668	 -0.000259	 -0.783830	 1.403987	 -0.291570	 -0.246738	 0.596818	 0.705631	 0
1502159874.784	 0	 -0.447807	 0.423118	 -0.474272	 -0.001382	 -0.788408	 1.396907	 -0.293728	 -0.247461	 0.593918	 0.706929	 0
1502159874.794	 0	 -0.385969	 0.420389	 -0.474958	 -0.002549	 -0.792543	 1.389706	 -0.295738	 -0.248036	 0.591033	 0.708306	 0
1502159874.804	 0	 -0.261187	 0.403217	 -0.467721	 -0.003819	 -0.795595	 1.382573	 -0.297332	 -0.248328	 0.588317	 0.709796	 0
1502159874.814	 0	 -0.088436	 0.389598	 -0.466625	 -0.004977	 -0.796979	 1.375676	 -0.298340	 -0.248117	 0.585869	 0.711469	 0
1502159874.824	 0	 0.083196	 0.416456	 -0.513827	 -0.006151	 -0.796629	 1.368426	 -0.298770	 -0.247351	 0.583505	 0.713496	 0
1502159874.834	 0	 0.192840	 0.454547	 -0.533636	 -0.007039	 -0.794956	 1.360873	 -0.298844	 -0.246054	 0.581141	 0.715838	 0
1502159874.844	 0	 0.215959	 0.495188	 -0.512267	 -0.007306	 -0.792755	 1.353614	 -0.298866	 -0.244429	 0.578842	 0.718244	 0
1502159874.854	 0	 0.171818	 0.544926	 -0.480647	 -0.006727	 -0.790783	 1.346812	 -0.299150	 -0.242637	 0.576544	 0.720578	 0
1502159874.864	 0	 0.079712	 0.603873	 -0.458976	 -0.005334	 -0.789620	 1.340347	 -0.299912	 -0.240833	 0.574141	 0.722782	 0
1502159874.874	 0	 -0.037673	 0.630656	 -0.458714	 -0.003521	 -0.789561	 1.333953	 -0.301177	 -0.239199	 0.571561	 0.724840	 0
1502159874.884	 0	 -0.122232	 0.550156	 -0.515591	 -0.002691	 -0.790431	 1.326945	 -0.302566	 -0.238087	 0.568790	 0.726805	 0
1502159874.894	 0	 -0.146684	 0.431797	 -0.624367	 -0.004031	 -0.791661	 1.318507	 -0.303637	 -0.237645	 0.565778	 0.728851	 0
1502159874.904	 0	 -0.103895	 0.310730	 -0.747697	 -0.007856	 -0.792574	 1.308326	 -0.304103	 -0.237751	 0.562536	 0.731129	 0
1502159874.914	 0	 -0.022640	 0.161223	 -0.857854	 -0.014282	 -0.792762	 1.296478	 -0.303780	 -0.238356	 0.559153	 0.733657	 0
1502159874.924	 0	 0.097566	 0.067350	 -0.924139	 -0.022583	 -0.791846	 1.283553	 -0.302671	 -0.239194	 0.555764	 0.736412	 0
1502159874.934	 0	 0.190528	 0.031804	 -0.922362	 -0.031450	 -0.789849	 1.270492	 -0.301036	 -0.239949	 0.552503	 0.739285	 0
1502159874.945	 0	 0.184914	 0.033877	 -0.853953	 -0.039650	 -0.787570	 1.258311	 -0.299386	 -0.240542	 0.549466	 0.742020	 0
1502159874.955	 0	 0.056997	 -0.157723	 -0.830436	 -0.048763	 -0.786262	 1.246701	 -0.297797	 -0.241845	 0.546649	 0.744314	 0
1502159874.964	 0	 -0.065025	 -0.401460	 -0.868708	 -0.060593	 -0.786171	 1.234721	 -0.295993	 -0.244451	 0.543950	 0.746156	 0
1502159874.975	 0	 -0.135423	 -0.528712	 -0.931732	 -0.074764	 -0.786775	 1.221771	 -0.293974	 -0.247991	 0.541144	 0.747825	 0
1502159874.985	 0	 -0.116437	 -0.469984	 -0.970354	 -0.089322	 -0.787250	 1.208128	 -0.291931	 -0.251565	 0.538125	 0.749608	 0
1502159874.995	 0	 -0.010265	 -0.215722	 -0.979275	 -0.101863	 -0.786696	 1.194403	 -0.290089	 -0.254135	 0.534848	 0.751799	 0
1502159875.005	 0	 0.081246	 0.168381	 -0.985595	 -0.110689	 -0.784991	 1.180807	 -0.288806	 -0.255066	 0.531153	 0.754592	 0
1502159875.015	 0	 0.114281	 0.549904	 -1.021130	 -0.115842	 -0.782714	 1.166934	 -0.288322	 -0.254451	 0.526841	 0.757999	 0
1502159875.025	 0	 0.109562	 0.824657	 -1.054335	 -0.118175	 -0.780344	 1.152579	 -0.288601	 -0.252690	 0.521916	 0.761879	 0
1502159875.035	 0	 0.093066	 0.908722	 -1.063333	 -0.119319	 -0.778079	 1.138042	 -0.289240	 -0.250482	 0.516710	 0.765905	 0
1502159875.045	 0	 0.064349	 0.889333	 -1.049525	 -0.120365	 -0.776085	 1.123595	 -0.289982	 -0.248317	 0.511470	 0.769836	 0
1502159875.055	 0	 0.027860	 0.889024	 -0.982358	 -0.120959	 -0.774464	 1.109907	 -0.290878	 -0.246177	 0.506398	 0.773529	 0
1502159875.065	 0	 -0.022392	 0.881181	 -0.931291	 -0.121280	 -0.773458	 1.096812	 -0.292001	 -0.244160	 0.501444	 0.776965	 0
1502159875.075	 0	 0.058823	 1.040495	 -0.958174	 -0.120576	 -0.772061	 1.083776	 -0.293199	 -0.241657	 0.496368	 0.780547	 0
1502159875.085	 0	 0.312323	 1.356620	 -1.123679	 -0.117847	 -0.768391	 1.069319	 -0.294126	 -0.237631	 0.490575	 0.785084	 0
1502159875.095	 0	 0.531527	 1.564921	 -1.344579	 -0.114406	 -0.762050	 1.052285	 -0.294398	 -0.232343	 0.483808	 0.790744	 0
1502159875.105	 0	 0.555349	 1.599213	 -1.490031	 -0.111525	 -0.754836	 1.033175	 -0.294345	 -0.226786	 0.476299	 0.796912	 0
1502159875.115	 0	 0.459149	 1.501616	 -1.547985	 -0.110030	 -0.748266	 1.012927	 -0.294275	 -0.221773	 0.468422	 0.802994	 0
1502159875.125	 0	 0.317922	 1.374869	 -1.490578	 -0.109467	 -0.743082	 0.992988	 -0.294457	 -0.217498	 0.460643	 0.808577	 0
1502159875.135	 0	 0.164993	 1.206443	 -1.367826	 -0.109470	 -0.739549	 0.974453	 -0.294990	 -0.214023	 0.453350	 0.813418	 0
1502159875.145	 0	 0.051705	 0.989360	 -1.230745	 -0.110422	 -0.737412	 0.957528	 -0.295685	 -0.211468	 0.446720	 0.817492	 0
1502159875.155	 0	 0.031716	 0.850749	 -1.092349	 -0.111736	 -0.735829	 0.942489	 -0.296313	 -0.209457	 0.440848	 0.820962	 0
1502159875.165	 0	 0.011598	 0.788812	 -1.032330	 -0.112990	 -0.734481	 0.928542	 -0.296927	 -0.207633	 0.435375	 0.824118	 0
1502159875.175	 0	 -0.005206	 0.578891	 -1.048715	 -0.115919	 -0.733323	 0.914613	 -0.297247	 -0.206544	 0.430125	 0.827029	 0
1502159875.185	 0	 0.050650	 0.370574	 -1.109586	 -0.121512	 -0.731729	 0.900076	 -0.296876	 -0.206391	 0.425019	 0.829835	 0
1502159875.195	 0	 0.184085	 0.346009	 -1.121517	 -0.127938	 -0.728872	 0.885330	 -0.295825	 -0.206331	 0.419987	 0.832782	 0
1502159875.205	 0	 0.314279	 0.447083	 -1.046265	 -0.132893	 -0.724638	 0.871618	 -0.294395	 -0.205580	 0.415201	 0.835869	 0
1502159875.215	 0	 0.330933	 0.606924	 -0.917381	 -0.135132	 -0.720035	 0.859635	 -0.293186	 -0.203905	 0.410722	 0.838911	 0
1502159875.225	 0	 0.218400	 0.613504	 -0.772626	 -0.135570	 -0.716447	 0.849445	 -0.292588	 -0.201942	 0.406662	 0.841569	 0
1502159875.235	 0	 0.009157	 0.415938	 -0.657592	 -0.136592	 -0.714832	 0.840614	 -0.292574	 -0.200788	 0.403160	 0.843532	 0
1502159875.245	 0	 -0.224122	 0.013724	 -0.622108	 -0.140908	 -0.715679	 0.832103	 -0.292929	 -0.201515	 0.400165	 0.844661	 0
1502159875.255	 0	 -0.312089	 -0.405502	 -0.647713	 -0.149882	 -0.717720	 0.823150	 -0.292931	 -0.204354	 0.397617	 0.845181	 0
1502159875.265	 0	 -0.342738	 -0.714566	 -0.781435	 -0.163159	 -0.719869	 0.812725	 -0.292308	 -0.208813	 0.395076	 0.845499	 0
1502159875.275	 0	 -0.353545	 -0.928664	 -0.959270	 -0.180497	 -0.721777	 0.799899	 -0.291083	 -0.214596	 0.392120	 0.845849	 0
1502159875.285	 0	 -0.342182	 -0.923213	 -1.144255	 -0.200013	 -0.723097	 0.784636	 -0.289512	 -0.220854	 0.388459	 0.846467	 0
1502159875.295	 0	 -0.335752	 -0.699488	 -1.223181	 -0.218805	 -0.723826	 0.767848	 -0.288079	 -0.226504	 0.384048	 0.847475	 0
1502159875.305	 0	 -0.430835	 -0.326376	 -1.196355	 -0.234216	 -0.725023	 0.751023	 -0.287588	 -0.230802	 0.379112	 0.848704	 0
1502159875.315	 0	 -0.582333	 0.213524	 -1.172670	 -0.244953	 -0.727518	 0.733966	 -0.288645	 -0.233275	 0.373384	 0.850206	 0
1502159875.325	 0	 -0.746853	 1.127152	 -1.120597	 -0.247546	 -0.731546	 0.716898	 -0.291930	 -0.232482	 0.366459	 0.852313	 0
1502159875.335	 0	 -1.044698	 1.904552	 -1.111574	 -0.241828	 -0.738164	 0.699259	 -0.297923	 -0.228366	 0.358031	 0.854929	 0
1502159875.345	 0	 -1.453953	 1.947296	 -1.185870	 -0.235402	 -0.748546	 0.679590	 -0.305878	 -0.224059	 0.348552	 0.857174	 0
1502159875.355	 0	 -1.764063	 1.681908	 -1.328932	 -0.233374	 -0.762115	 0.656902	 -0.314766	 -0.221446	 0.338386	 0.858708	 0
1502159875.365	 0	 -1.750471	 1.465837	 -1.471313	 -0.235809	 -0.776009	 0.631745	 -0.323302	 -0.220215	 0.327861	 0.859935	 0
1502159875.375	 0	 -1.543504	 1.305519	 -1.544299	 -0.240835	 -0.787928	 0.605408	 -0.330679	 -0.219479	 0.317287	 0.861283	 0
1502159875.385	 0	 -1.365382	 1.088514	 -1.514556	 -0.247929	 -0.797890	 0.579408	 -0.336854	 -0.219305	 0.307244	 0.862575	 0
1502159875.395	 0	 -1.168879	 0.946182	 -1.396227	 -0.255698	 -0.806162	 0.555071	 -0.342031	 -0.219390	 0.298070	 0.863734	 0
1502159875.405	 0	 -0.922848	 0.878767	 -1.247949	 -0.262419	 -0.812416	 0.533374	 -0.346211	 -0.219174	 0.289879	 0.864911	 0
1502159875.415	 0	 -0.687878	 0.709062	 -1.118590	 -0.268619	 -0.816558	 0.514440	 -0.349246	 -0.218949	 0.282796	 0.866092	 0
1502159875.425	 0	 -0.593861	 0.455208	 -1.058192	 -0.276172	 -0.819522	 0.496974	 -0.351428	 -0.219422	 0.276584	 0.867095	 0
1502159875.435	 0	 -0.612512	 0.354916	 -1.034370	 -0.285136	 -0.822446	 0.479804	 -0.353397	 -0.220526	 0.270759	 0.867853	 0
1502159875.445	 0	 -0.680534	 0.629172	 -0.962069	 -0.291926	 -0.825993	 0.463162	 -0.355912	 -0.220798	 0.264801	 0.868594	 0
1502159875.455	 0	 -0.764914	 0.995998	 -0.941575	 -0.295074	 -0.830387	 0.446634	 -0.359287	 -0.219534	 0.258271	 0.869490	 0
1502159875.465	 0	 -0.875457	 1.338127	 -1.000284	 -0.295448	 -0.835607	 0.429038	 -0.363498	 -0.216878	 0.250800	 0.870593	 0
1502159875.475	 0	 -1.070416	 1.408026	 -1.124730	 -0.296287	 -0.842121	 0.409029	 -0.368468	 -0.214003	 0.242395	 0.871595	 0
1502159875.485	 0	 -1.307908	 1.277401	 -1.244363	 -0.300361	 -0.850508	 0.385942	 -0.374200	 -0.211988	 0.233308	 0.872126	 0
1502159875.495	 0	 -1.478666	 1.030131	 -1.353508	 -0.308915	 -0.860282	 0.360059	 -0.380338	 -0.211348	 0.223926	 0.872085	 0
1502159875.505	 0	 -1.590531	 0.764128	 -1.499656	 -0.322680	 -0.870644	 0.331108	 -0.386530	 -0.212261	 0.214305	 0.871558	 0
1502159875.515	 0	 -1.610368	 0.584022	 -1.601741	 -0.340698	 -0.880745	 0.299528	 -0.392523	 -0.214318	 0.204472	 0.870738	 0
1502159875.525	 0	 -1.558083	 0.398031	 -1.602828	 -0.361187	 -0.890040	 0.267203	 -0.398107	 -0.217084	 0.194906	 0.869711	 0
1502159875.535	 0	 -1.442906	 0.576745	 -1.617813	 -0.381687	 -0.897874	 0.234528	 -0.403209	 -0.219572	 0.185249	 0.868846	 0
1502159875.545	 0	 -1.228806	 0.830725	 -1.431428	 -0.397319	 -0.904148	 0.204541	 -0.407879	 -0.220322	 0.175791	 0.868441	 0
1502159875.555	 0	 -1.048761	 0.901281	 -1.252011	 -0.409197	 -0.909055	 0.178202	 -0.411932	 -0.220073	 0.167128	 0.868302	 0
1502159875.565	 0	 -0.942445	 0.974452	 -1.027055	 -0.417430	 -0.913528	 0.155659	 -0.415710	 -0.218946	 0.159375	 0.868244	 0
1502159875.575	 0	 -1.034197	 1.063194	 -0.871805	 -0.423084	 -0.918941	 0.135429	 -0.419861	 -0.217098	 0.152195	 0.867999	 0
1502159875.585	 0	 -1.196185	 1.213208	 -0.837011	 -0.427837	 -0.926057	 0.114795	 -0.424864	 -0.214664	 0.144821	 0.867431	 0
1502159875.595	 0	 -1.191936	 1.421991	 -0.879525	 -0.431333	 -0.933391	 0.093329	 -0.430121	 -0.211408	 0.136875	 0.866930	 0
1502159875.605	 0	 -1.100229	 1.470624	 -0.963659	 -0.434669	 -0.939636	 0.070921	 -0.434980	 -0.207817	 0.128427	 0.866667	 0
1502159875.615	 0	 -1.055390	 1.328243	 -1.031273	 -0.439765	 -0.944957	 0.047590	 -0.439391	 -0.204731	 0.119911	 0.866396	 0
1502159875.625	 0	 -1.069913	 1.107678	 -1.065781	 -0.447810	 -0.950037	 0.023360	 -0.443602	 -0.202651	 0.111671	 0.865840	 0
1502159875.635	 0	 -1.078251	 0.903154	 -1.076790	 -0.458485	 -0.955022	 -0.001491	 -0.447697	 -0.201487	 0.103788	 0.864984	 0
1502159875.645	 0	 -1.095430	 0.735809	 -1.060187	 -0.471230	 -0.959967	 -0.026467	 -0.451707	 -0.201103	 0.096372	 0.863846	 0
1502159875.655	 0	 -1.123936	 0.667417	 -1.023721	 -0.485060	 -0.965144	 -0.051573	 -0.455813	 -0.201049	 0.089240	 0.862467	 0
1502159875.665	 0	 -1.051952	 0.736115	 -1.003238	 -0.498251	 -0.969919	 -0.076249	 -0.459767	 -0.200749	 0.082175	 0.861140	 0
1502159875.675	 0	 -0.830795	 0.811232	 -0.975460	 -0.509222	 -0.972996	 -0.099194	 -0.462942	 -0.199941	 0.075201	 0.860263	 0
1502159875.685	 0	 -0.553159	 0.851638	 -0.896940	 -0.517131	 -0.973908	 -0.118924	 -0.465010	 -0.198690	 0.068664	 0.859984	 0
1502159875.695	 0	 -0.303547	 0.900354	 -0.755520	 -0.521042	 -0.973100	 -0.134400	 -0.466071	 -0.196840	 0.062815	 0.860283	 0
1502159875.705	 0	 -0.125077	 0.882483	 -0.578967	 -0.521257	 -0.971414	 -0.145444	 -0.466433	 -0.194509	 0.057895	 0.860961	 0
1502159875.715	 0	 -0.053491	 0.753053	 -0.427216	 -0.519640	 -0.969657	 -0.153106	 -0.466478	 -0.192187	 0.053989	 0.861712	 0
1502159875.725	 0	 -0.161926	 0.468918	 -0.336901	 -0.519551	 -0.968953	 -0.159632	 -0.466808	 -0.190691	 0.051063	 0.862044	 0
1502159875.735	 0	 -0.400347	 0.245584	 -0.347075	 -0.523392	 -0.970192	 -0.167804	 -0.468013	 -0.190319	 0.048603	 0.861615	 0
1502159875.745	 0	 -0.606604	 0.399555	 -0.443049	 -0.529424	 -0.972962	 -0.179157	 -0.470114	 -0.189984	 0.045501	 0.860714	 0
1502159875.755	 0	 -0.676480	 0.786771	 -0.616138	 -0.534740	 -0.975840	 -0.193903	 -0.472600	 -0.188505	 0.040805	 0.859913	 0
1502159875.765	 0	 -0.646100	 1.029880	 -0.850081	 -0.539865	 -0.977439	 -0.211986	 -0.474865	 -0.186256	 0.034469	 0.859432	 0
1502159875.775	 0	 -0.598622	 1.046253	 -1.020988	 -0.546549	 -0.977555	 -0.232723	 -0.476730	 -0.184182	 0.027166	 0.859109	 0
1502159875.785	 0	 -0.550582	 1.062598	 -1.064615	 -0.553799	 -0.976818	 -0.254189	 -0.478307	 -0.182255	 0.019570	 0.858849	 0
1502159875.795	 0	 -0.396008	 1.213925	 -1.032198	 -0.558720	 -0.975098	 -0.274213	 -0.479371	 -0.179780	 0.011891	 0.858919	 0
1502159875.805	 0	 -0.008492	 1.425565	 -0.968667	 -0.558180	 -0.970881	 -0.290214	 -0.479062	 -0.176235	 0.004244	 0.859897	 0
1502159875.815	 0	 0.527496	 1.554170	 -0.858992	 -0.550903	 -0.962863	 -0.299957	 -0.476610	 -0.171781	 -0.002914	 0.862163	 0
1502159875.825	 0	 0.939974	 1.413435	 -0.643108	 -0.538436	 -0.951907	 -0.302694	 -0.472278	 -0.167121	 -0.008711	 0.865418	 0
1502159875.835	 0	 0.971110	 1.016362	 -0.370753	 -0.525542	 -0.941162	 -0.300609	 -0.467572	 -0.163351	 -0.012435	 0.868641	 0
1502159875.845	 0	 0.772541	 0.751761	 -0.159129	 -0.514341	 -0.932945	 -0.296651	 -0.463744	 -0.160399	 -0.014520	 0.871208	 0
1502159875.855	 0	 0.563342	 0.771462	 -0.112334	 -0.504168	 -0.927056	 -0.293317	 -0.460931	 -0.157436	 -0.016261	 0.873208	 0
1502159875.865	 0	 0.478415	 0.958295	 -0.213055	 -0.494104	 -0.921879	 -0.292077	 -0.458567	 -0.153932	 -0.018761	 0.875026	 0
1502159875.875	 0	 0.503367	 1.161954	 -0.365591	 -0.483704	 -0.915988	 -0.293020	 -0.456043	 -0.149848	 -0.022370	 0.876966	 0
1502159875.885	 0	 0.569146	 1.316914	 -0.523033	 -0.473201	 -0.908867	 -0.295884	 -0.453108	 -0.145409	 -0.026987	 0.879103	 0
1502159875.895	 0	 0.672055	 1.493436	 -0.666430	 -0.462225	 -0.900288	 -0.300340	 -0.449616	 -0.140559	 -0.032580	 0.881492	 0
1502159875.905	 0	 0.911973	 1.713588	 -0.755699	 -0.449314	 -0.889493	 -0.305048	 -0.445103	 -0.135043	 -0.038976	 0.884380	 0
1502159875.915	 0	 1.334011	 1.887146	 -0.736729	 -0.432711	 -0.875265	 -0.307517	 -0.438812	 -0.128754	 -0.045582	 0.888138	 0
1502159875.925	 0	 1.847937	 1.953810	 -0.614106	 -0.411993	 -0.856903	 -0.305843	 -0.430274	 -0.121935	 -0.051640	 0.892933	 0
1502159875.935	 0	 2.322375	 1.952014	 -0.380222	 -0.387379	 -0.834872	 -0.299066	 -0.419610	 -0.114721	 -0.056473	 0.898653	 0
1502159875.945	 0	 2.642731	 1.853178	 -0.112651	 -0.360216	 -0.810220	 -0.287713	 -0.407342	 -0.107348	 -0.059754	 0.904974	 0
1502159875.955	 0	 2.770894	 1.671958	 0.098474	 -0.332852	 -0.784504	 -0.273597	 -0.394342	 -0.100236	 -0.061539	 0.911405	 0
1502159875.965	 0	 2.734031	 1.423527	 0.094959	 -0.308460	 -0.758710	 -0.260004	 -0.381337	 -0.094056	 -0.062581	 0.917507	 0
1502159875.975	 0	 2.573341	 1.158252	 -0.107106	 -0.289502	 -0.733494	 -0.250099	 -0.368855	 -0.089346	 -0.063892	 0.922974	 0
1502159875.985	 0	 2.333761	 0.941376	 -0.375077	 -0.276273	 -0.709602	 -0.245136	 -0.357300	 -0.086083	 -0.066077	 0.927664	 0
1502159875.995	 0	 2.096007	 0.739406	 -0.587479	 -0.267915	 -0.687446	 -0.244380	 -0.346812	 -0.084101	 -0.069056	 0.931601	 0
1502159876.005	 0	 1.892871	 0.560044	 -0.696017	 -0.263025	 -0.666928	 -0.246207	 -0.337251	 -0.083127	 -0.072429	 0.934936	 0
1502159876.015	 0	 1.763821	 0.422757	 -0.735823	 -0.260359	 -0.647719	 -0.249249	 -0.328385	 -0.082888	 -0.075854	 0.937837	 0
1502159876.025	 0	 1.721313	 0.399007	 -0.731707	 -0.258368	 -0.629127	 -0.252583	 -0.319810	 -0.082882	 -0.079236	 0.940518	 0
1502159876.035	 0	 1.761189	 0.485580	 -0.707213	 -0.255537	 -0.610401	 -0.255603	 -0.311094	 -0.082556	 -0.082597	 0.943177	 0
1502159876.045	 0	 1.804848	 0.645657	 -0.671220	 -0.250909	 -0.591298	 -0.258168	 -0.302074	 -0.081490	 -0.086020	 0.945892	 0
1502159876.055	 0	 1.863983	 0.722784	 -0.649779	 -0.245017	 -0.571800	 -0.260278	 -0.292755	 -0.079926	 -0.089399	 0.948638	 0
1502159876.065	 0	 1.856499	 0.770670	 -0.716326	 -0.238805	 -0.552030	 -0.262951	 -0.283273	 -0.078148	 -0.093054	 0.951310	 0
1502159876.075	 0	 1.759162	 0.776360	 -0.904104	 -0.233501	 -0.532610	 -0.267733	 -0.274038	 -0.076489	 -0.097504	 0.953701	 0
1502159876.085	 0	 1.566960	 0.781350	 -1.092454	 -0.229445	 -0.514403	 -0.275245	 -0.265501	 -0.074991	 -0.102960	 0.955659	 0
1502159876.095	 0	 1.315741	 0.780550	 -1.173111	 -0.226123	 -0.498330	 -0.284586	 -0.258050	 -0.073484	 -0.109017	 0.957145	 0
1502159876.105	 0	 1.044470	 0.735928	 -1.237673	 -0.223642	 -0.484746	 -0.295247	 -0.251847	 -0.072067	 -0.115406	 0.958155	 0
1502159876.115	 0	 0.812052	 0.644771	 -1.357437	 -0.222656	 -0.473403	 -0.307613	 -0.246840	 -0.071023	 -0.122262	 0.958685	 0
1502159876.125	 0	 0.680649	 0.612931	 -1.501422	 -0.222985	 -0.463273	 -0.321893	 -0.242550	 -0.070330	 -0.129792	 0.958842	 0
1502159876.135	 0	 0.694418	 0.692916	 -1.596843	 -0.223137	 -0.453130	 -0.337382	 -0.238281	 -0.069473	 -0.137929	 0.958838	 0
1502159876.145	 0	 0.834526	 0.790886	 -1.597456	 -0.222126	 -0.441841	 -0.352794	 -0.233376	 -0.068246	 -0.146254	 0.958899	 0
1502159876.155	 0	 1.025517	 0.879611	 -1.510020	 -0.219525	 -0.428940	 -0.366981	 -0.227527	 -0.066636	 -0.154287	 0.959159	 0
1502159876.165	 0	 1.228232	 0.940746	 -1.384972	 -0.215288	 -0.414418	 -0.379342	 -0.220693	 -0.064690	 -0.161728	 0.959663	 0
1502159876.175	 0	 1.431573	 0.901785	 -1.268083	 -0.210335	 -0.398160	 -0.389960	 -0.212885	 -0.062845	 -0.168504	 0.960384	 0
1502159876.185	 0	 1.583944	 0.841132	 -1.164248	 -0.205253	 -0.380517	 -0.399109	 -0.204326	 -0.061310	 -0.174642	 0.961245	 0
1502159876.195	 0	 1.636140	 0.785050	 -1.070659	 -0.200127	 -0.362331	 -0.407078	 -0.195436	 -0.059996	 -0.180206	 0.962149	 0
1502159876.205	 0	 1.630229	 0.662511	 -1.007105	 -0.195659	 -0.344297	 -0.414337	 -0.186628	 -0.059106	 -0.185307	 0.962984	 0
1502159876.215	 0	 1.605213	 0.518550	 -0.936099	 -0.192292	 -0.326601	 -0.420978	 -0.178044	 -0.058819	 -0.189944	 0.963723	 0
1502159876.225	 0	 1.550141	 0.390309	 -0.831107	 -0.189887	 -0.309644	 -0.426713	 -0.169862	 -0.059039	 -0.193980	 0.964382	 0
1502159876.235	 0	 1.481023	 0.283248	 -0.708098	 -0.188161	 -0.293507	 -0.431388	 -0.162097	 -0.059620	 -0.197370	 0.964995	 0
1502159876.245	 0	 1.409674	 0.199615	 -0.598033	 -0.187024	 -0.278318	 -0.434997	 -0.154805	 -0.060493	 -0.200121	 0.965571	 0
1502159876.255	 0	 1.411481	 0.231585	 -0.567134	 -0.185691	 -0.263452	 -0.438094	 -0.147627	 -0.061294	 -0.202603	 0.966127	 0
1502159876.265	 0	 1.543487	 0.281574	 -0.601832	 -0.183727	 -0.247568	 -0.441250	 -0.139889	 -0.061920	 -0.205198	 0.966691	 0
1502159876.275	 0	 1.735669	 0.267041	 -0.659439	 -0.181818	 -0.229795	 -0.444624	 -0.131246	 -0.062793	 -0.207975	 0.967253	 0
1502159876.285	 0	 1.932013	 0.258937	 -0.703145	 -0.179976	 -0.210047	 -0.448153	 -0.121655	 -0.063937	 -0.210902	 0.967798	 0
1502159876.295	 0	 2.064283	 0.230107	 -0.686191	 -0.178245	 -0.188747	 -0.451431	 -0.111309	 -0.065355	 -0.213749	 0.968323	 0
1502159876.305	 0	 2.123879	 0.215634	 -0.640853	 -0.176506	 -0.166781	 -0.454159	 -0.100614	 -0.066898	 -0.216325	 0.968816	 0
1502159876.315	 0	 2.148085	 0.094401	 -0.647713	 -0.175578	 -0.144531	 -0.456762	 -0.089855	 -0.068893	 -0.218774	 0.969184	 0
